acc_x,acc_y,acc_z,gyr_x,gyr_y,gyr_z,mag_x,mag_y,mag_z
-44,221,-957,-910,-980,-840,-304,-169,736
-47,223,-956,-840,-980,-770,-312,-162,727
-46,223,-957,-1190,-980,-770,-312,-160,729
-46,223,-957,-1400,-1050,-840,-315,-160,733
-46,223,-957,-1400,-980,-840,-304,-162,729
-44,224,-957,-980,-980,-840,-307,-171,726
-46,223,-956,-700,-980,-840,-318,-169,730
-46,224,-956,-840,-1050,-840,-306,-169,724
-24,-10,-987,1050,-630,-840,-178,-175,700
-24,-11,-982,1260,-2940,-1330,-181,-183,712
-23,-8,-986,140,-2170,-1190,-183,-172,703
-24,-9,-985,280,-2590,-1330,-174,-181,717
-26,-10,-991,700,-1680,-1190,-180,-178,703
-24,-9,-973,490,-770,-910,-183,-184,705
-25,-11,-991,-210,560,-910,-183,-177,712
-25,-10,-985,770,-1680,-770,-181,-177,705
-25,-10,-981,-350,140,-700,-169,-159,700
-24,-11,-981,-840,350,-770,-178,-181,706
-25,-12,-988,-1050,-70,-770,-174,-174,702
-23,-10,-986,-280,-700,-770,-178,-187,709
-23,-9,-983,560,-770,-770,-183,-177,691
-24,-11,-984,1190,-210,-840,-186,-183,696
-23,-11,-984,1890,-420,-910,-172,-178,705
-22,-12,-984,1960,-350,-910,-190,-186,706
-23,-11,-985,1260,-280,-840,-183,-166,709
-23,-12,-983,140,-420,-840,-174,-177,700
-23,-11,-983,-350,-420,-770,-172,-175,696
-22,-12,-983,-420,-420,-840,-178,-172,709
-23,-12,-984,-210,-560,-840,-193,-175,705
-23,-11,-983,210,-770,-840,-181,-181,706
-23,-12,-984,140,-840,-840,-181,-177,709
-23,-11,-985,140,-910,-840,-181,-171,703
-22,-12,-983,-210,-840,-770,-186,-178,694
-22,-12,-984,-420,-630,-770,-181,-180,708
-23,-12,-982,-350,-770,-770,-181,-172,712
-22,-11,-983,-210,-770,-770,-174,-187,700
-21,-11,-983,140,-910,-770,-181,-178,711
-23,-12,-984,280,-1050,-770,-190,-174,705
-22,-12,-984,140,-1050,-770,-181,-187,700
-23,-12,-984,-140,-980,-770,-178,-184,712
-22,-12,-984,-490,-980,-700,-183,-177,705
-22,-12,-983,-770,-1050,-700,-177,-187,709
-23,-11,-984,-770,-980,-700,-184,-187,703
-23,-11,-984,-700,-980,-630,-183,-190,709
-23,-11,-984,-420,-1050,-700,-174,-174,706
-23,-11,-985,-140,-910,-700,-180,-171,706
-23,-11,-984,-140,-980,-700,-175,-195,718
-22,-12,-985,-350,-770,-700,-187,-178,706
-23,-12,-984,-560,-910,-700,-172,-171,693
-23,-11,-983,-630,-840,-700,-183,-180,712
-23,-10,-984,-630,-980,-700,-178,-178,702
-23,-12,-984,-350,-910,-700,-186,-184,700
-23,-11,-984,-140,-840,-700,-189,-181,708
-22,-12,-984,0,-910,-770,-186,-171,696
-22,-11,-984,70,-910,-700,-187,-175,709
-23,-11,-983,140,-1120,-700,-181,-190,700
-23,-12,-984,280,-1120,-700,-183,-181,697
-23,-12,-984,630,-1120,-840,-186,-189,705
-23,-13,-984,700,-910,-840,-189,-177,711
-23,-12,-984,490,-770,-840,-178,-175,708
-23,-12,-985,140,-630,-700,-172,-180,705
-23,-12,-983,70,-700,-770,-180,-174,711
-22,-12,-984,210,-700,-700,-183,-190,703
-22,-12,-983,490,-840,-770,-172,-180,708
-22,-12,-984,770,-770,-770,-181,-180,711
-22,-13,-984,1050,-770,-840,-178,-184,709
-23,-14,-983,1330,-560,-770,-178,-177,700
-22,-15,-983,1400,-630,-770,-183,-178,699
-22,-15,-983,1190,-840,-770,-175,-174,703
-22,-14,-984,1050,-840,-840,-180,-181,700
-22,-14,-983,1050,-1050,-840,-180,-184,708
-22,-15,-983,1050,-980,-910,-169,-180,709
-22,-16,-984,1190,-1190,-910,-175,-178,705
-21,-15,-984,840,-1260,-910,-178,-177,711
-23,-15,-986,560,-1120,-840,-178,-183,706
-22,-16,-984,280,-910,-840,-178,-172,706
-22,-15,-985,-140,-560,-770,-181,-189,705
-22,-16,-984,-280,-420,-770,-186,-175,691
-22,-14,-984,-420,-420,-770,-175,-175,706
-22,-15,-983,-560,-630,-840,-181,-175,702
-21,-14,-984,-70,-910,-840,-174,-177,721
-22,-16,-984,560,-980,-910,-184,-177,706
-21,-15,-984,1120,-840,-910,-177,-186,703
-22,-17,-983,980,-700,-910,-171,-186,703
-22,-17,-983,560,-770,-840,-174,-183,708
-21,-16,-985,-280,-840,-770,-181,-184,715
-20,-16,-983,-630,-910,-770,-181,-174,705
-22,-16,-984,-560,-1050,-770,-174,-177,709
-21,-16,-984,-350,-1050,-770,-181,-181,702
-22,-16,-985,280,-1050,-840,-183,-184,703
-22,-16,-984,770,-980,-910,-175,-177,711
-22,-16,-986,1470,-700,-1050,-171,-181,700
-22,-18,-978,1890,-630,-1120,-178,-171,703
-22,-18,-989,3150,-630,-1260,-178,-175,709
-20,-17,-978,2170,-1260,-1190,-178,-175,697
-22,-19,-989,630,-280,-980,-175,-187,699
-21,-17,-981,840,-1400,-910,-183,-183,699
-22,-18,-986,210,-420,-840,-177,-172,703
-22,-18,-983,770,-1260,-770,-171,-175,700
-21,-18,-983,630,-560,-840,-177,-184,702
-21,-19,-984,770,-980,-700,-174,-177,699
-21,-18,-984,560,-840,-700,-168,-184,720
-22,-22,-980,630,-910,-630,-172,-177,708
-21,-18,-985,1190,-770,-420,-180,-187,697
-22,-22,-985,910,-980,-630,-178,-174,705
-22,-20,-983,910,-1050,-420,-183,-175,706
-22,-21,-986,980,-700,-490,-174,-177,696
-21,-21,-982,1050,-1190,-630,-174,-183,706
-21,-19,-986,840,-560,-770,-180,-184,699
-22,-25,-982,1330,-1120,-770,-174,-169,709
-21,-20,-985,1820,-910,-490,-168,-186,706
-21,-20,-983,770,-910,-560,-180,-178,697
-22,-20,-985,350,-910,-560,-174,-177,700
-21,-22,-984,210,-980,-560,-177,-171,703
-20,-22,-984,210,-980,-630,-177,-183,702
-20,-23,-985,280,-980,-700,-174,-177,708
-21,-22,-985,420,-1050,-700,-178,-169,702
-22,-23,-985,560,-910,-700,-168,-177,702
-22,-23,-984,630,-910,-700,-169,-180,699
-21,-23,-984,210,-840,-770,-172,-180,705
-21,-23,-983,140,-910,-700,-168,-180,706
-21,-22,-985,140,-910,-770,-166,-186,700
-21,-22,-984,280,-910,-770,-175,-172,700
-21,-23,-984,140,-910,-770,-178,-178,699
-20,-23,-984,0,-980,-770,-180,-189,699
-21,-23,-986,-70,-980,-840,-180,-180,702
-21,-23,-984,-140,-1050,-910,-166,-184,703
-22,-23,-985,-280,-910,-910,-174,-190,702
-21,-23,-983,-280,-1050,-840,-177,-187,721
-21,-22,-984,-280,-840,-840,-178,-193,705
-22,-22,-984,-210,-1050,-840,-175,-181,706
-22,-23,-983,-70,-910,-840,-171,-174,703
-21,-21,-984,-210,-980,-840,-171,-183,708
-21,-23,-984,-350,-840,-840,-181,-180,711
-21,-22,-985,-70,-980,-840,-175,-172,691
-22,-23,-984,0,-910,-840,-180,-189,705
-22,-23,-985,70,-840,-840,-184,-186,705
-21,-22,-983,0,-700,-840,-181,-180,708
-21,-24,-984,-350,-770,-840,-177,-186,691
-20,-22,-982,-700,-910,-910,-177,-178,696
-22,-22,-985,-560,-840,-980,-175,-172,706
-22,-21,-983,-210,-1190,-910,-177,-181,705
-21,-23,-984,-280,-840,-840,-174,-177,703
-21,-22,-984,-420,-1120,-910,-180,-180,697
-21,-23,-984,-560,-980,-840,-165,-180,697
-22,-23,-984,-560,-980,-910,-177,-177,694
-22,-23,-983,-560,-980,-840,-183,-180,696
-22,-22,-985,-560,-1050,-770,-178,-177,705
-20,-22,-985,-560,-1120,-700,-174,-174,706
-21,-22,-984,-210,-1050,-700,-172,-178,708
-20,-22,-984,-280,-980,-770,-178,-181,697
-21,-21,-985,-350,-980,-770,-175,-186,700
-21,-22,-984,-420,-980,-700,-166,-184,700
-21,-23,-984,-350,-980,-700,-172,-184,702
-21,-21,-985,-350,-980,-700,-174,-181,715
-20,-22,-984,-280,-910,-700,-178,-180,708
-22,-22,-985,-140,-980,-700,-172,-186,717
-21,-23,-985,-210,-980,-770,-172,-186,700
-22,-21,-987,-280,-980,-770,-177,-177,706
-22,-23,-985,0,-980,-770,-186,-177,703
-21,-25,-983,560,-770,-840,-184,-174,703
-20,-22,-984,1470,-770,-1400,-174,-177,703
-20,-21,-983,840,-700,-1330,-177,-180,705
-21,-24,-984,420,-770,-1050,-174,-178,708
-21,-23,-984,280,-910,-980,-169,-184,697
-21,-23,-985,70,-840,-980,-169,-184,700
-21,-23,-984,70,-1120,-840,-175,-174,703
-22,-23,-984,-70,-980,-770,-178,-180,708
-21,-24,-983,70,-1190,-770,-174,-183,709
-21,-24,-984,-70,-1120,-770,-175,-168,708
-22,-23,-985,-70,-1190,-700,-175,-184,703
-22,-23,-985,-210,-1120,-700,-177,-174,700
-21,-24,-983,-490,-1120,-700,-175,-178,706
-21,-23,-985,-350,-980,-700,-165,-174,709
-21,-23,-984,-210,-1120,-700,-174,-186,708
-21,-23,-984,-140,-1050,-630,-165,-186,709
-21,-23,-985,0,-1120,-700,-174,-172,720
-20,-23,-984,-70,-1050,-770,-183,-180,706
-21,-23,-984,70,-1120,-770,-180,-184,712
-22,-24,-984,210,-1190,-770,-184,-183,705
-21,-24,-984,210,-1190,-770,-171,-187,694
-21,-24,-984,70,-1260,-840,-169,-180,709
-21,-24,-984,-70,-1260,-770,-177,-175,706
-22,-24,-985,-210,-1260,-770,-175,-180,697
-21,-24,-984,-140,-1260,-770,-175,-190,712
-23,-24,-983,-70,-1120,-700,-175,-183,697
-22,-25,-984,-140,-1190,-700,-175,-172,709
-23,-24,-985,-350,-1120,-700,-171,-177,705
-22,-24,-984,-700,-1260,-700,-168,-180,700
-21,-24,-985,-840,-1190,-700,-178,-171,706
-22,-23,-985,-840,-1260,-700,-172,-178,697
-22,-23,-984,-700,-1190,-700,-177,-180,706
-21,-23,-984,-350,-1190,-700,-166,-177,697
-22,-23,-984,-210,-1190,-700,-178,-180,691
-22,-23,-985,-210,-1260,-700,-180,-180,703
-22,-24,-985,-70,-1260,-700,-174,-174,700
-22,-23,-986,-140,-1260,-700,-180,-180,696
-23,-23,-983,-350,-1330,-700,-166,-180,691
-23,-23,-985,-350,-1120,-700,-180,-183,696
-22,-24,-985,-350,-1190,-700,-178,-177,696
-23,-24,-984,-420,-1120,-630,-175,-181,706
-21,-23,-983,-420,-1190,-700,-174,-186,706
-22,-23,-984,-420,-1050,-700,-177,-180,708
-23,-23,-984,-560,-1260,-630,-178,-174,703
-22,-23,-983,-630,-1120,-630,-180,-193,700
-22,-23,-985,-560,-1120,-630,-177,-183,705
-23,-23,-983,-490,-1120,-630,-181,-187,715
-22,-22,-984,-630,-1050,-630,-177,-183,700
-23,-24,-984,-630,-1120,-700,-174,-177,714
-22,-22,-985,-560,-980,-630,-180,-177,702
-22,-22,-985,-560,-1120,-630,-181,-177,702
-22,-22,-984,-490,-980,-700,-180,-187,702
-22,-22,-985,-280,-1120,-700,-172,-184,711
-23,-22,-983,-70,-1050,-770,-168,-174,702
-23,-23,-985,-70,-980,-700,-177,-192,709
-23,-22,-983,-140,-1050,-700,-178,-178,711
-23,-23,-985,-280,-1050,-700,-172,-177,705
-23,-22,-983,-280,-1050,-700,-175,-175,703
-23,-23,-985,-350,-1050,-700,-174,-181,706
-21,-23,-984,-210,-1120,-700,-181,-178,706
-22,-22,-983,-70,-1120,-770,-175,-177,706
-23,-22,-985,-140,-980,-770,-178,-184,714
-22,-23,-983,70,-980,-700,-178,-195,705
-23,-22,-984,0,-840,-700,-177,-171,706
-23,-22,-983,0,-910,-700,-178,-180,712
-22,-23,-985,-70,-910,-700,-174,-180,718
-23,-23,-984,-70,-910,-700,-177,-184,703
-23,-22,-984,70,-840,-770,-174,-175,712
-23,-23,-984,140,-910,-770,-172,-174,700
-22,-23,-984,140,-910,-770,-169,-177,709
-23,-22,-984,140,-840,-770,-183,-172,705
-23,-24,-984,140,-910,-700,-177,-177,697
-22,-23,-984,140,-840,-700,-181,-183,696
-22,-24,-983,210,-840,-770,-186,-178,700
-23,-24,-984,210,-910,-770,-175,-187,717
-23,-24,-984,140,-980,-770,-184,-189,706
-23,-23,-984,140,-910,-770,-168,-180,702
-22,-24,-984,140,-910,-770,-174,-186,711
-24,-23,-984,70,-910,-770,-163,-180,706
-23,-24,-984,0,-910,-770,-181,-175,703
-22,-24,-984,0,-910,-770,-184,-169,700
-22,-24,-984,70,-910,-770,-177,-175,708
-22,-23,-984,0,-910,-770,-174,-171,703
-22,-24,-984,-70,-910,-700,-177,-172,705
-23,-24,-983,-140,-910,-700,-177,-178,709
-22,-24,-984,-140,-980,-700,-175,-178,712
-22,-24,-985,-70,-980,-770,-184,-183,714
-22,-24,-984,0,-980,-700,-178,-174,703
-22,-23,-984,70,-910,-770,-186,-168,700
-22,-24,-984,70,-980,-770,-177,-183,703
-22,-24,-984,0,-980,-770,-171,-178,700
-22,-24,-984,0,-980,-770,-183,-181,703
-22,-24,-984,0,-980,-770,-171,-192,700
-23,-24,-984,-70,-980,-700,-172,-169,703
-22,-24,-984,-140,-910,-770,-177,-180,709
-22,-24,-984,-140,-980,-770,-177,-178,708
-24,-23,-983,-70,-910,-700,-175,-180,702
-22,-24,-985,-70,-980,-770,-169,-174,702
-23,-24,-984,-70,-980,-700,-177,-177,711
-22,-24,-984,-140,-980,-700,-169,-180,703
-22,-25,-984,-70,-910,-770,-181,-181,705
-21,-25,-984,-70,-980,-770,-177,-184,699
-22,-23,-984,0,-980,-700,-171,-187,712
-22,-24,-984,-70,-1050,-770,-186,-171,703
-23,-24,-984,0,-980,-770,-169,-178,706
-22,-25,-983,0,-1050,-770,-172,-183,702
-22,-25,-983,0,-980,-770,-175,-178,702
-22,-24,-984,-70,-980,-770,-168,-184,700
-23,-25,-984,-210,-980,-770,-168,-180,709
-23,-24,-984,-210,-980,-770,-181,-172,700
-22,-25,-984,-280,-1050,-770,-177,-175,700
-23,-24,-984,-210,-980,-770,-180,-186,708
-22,-25,-984,-210,-1050,-770,-175,-187,711
-22,-24,-984,-70,-980,-770,-183,-189,700
-22,-25,-984,-70,-910,-770,-180,-180,691
-22,-25,-984,-140,-910,-770,-178,-180,702
-23,-25,-983,-140,-980,-770,-175,-181,699
-22,-24,-985,-140,-980,-770,-178,-186,700
-22,-24,-984,-210,-980,-770,-184,-175,700
-22,-24,-984,-140,-1050,-770,-163,-181,696
-23,-25,-984,0,-980,-770,-192,-181,708
-22,-25,-984,0,-1050,-770,-183,-174,700
-23,-25,-983,-70,-1050,-770,-175,-178,705
-22,-25,-984,-140,-1050,-770,-175,-187,705
-22,-24,-984,-140,-1050,-770,-177,-178,714
-23,-25,-984,-140,-1050,-840,-163,-177,702
-22,-24,-983,-70,-980,-770,-175,-183,699
-22,-25,-985,-140,-1050,-770,-174,-171,717
-23,-26,-983,-70,-980,-770,-177,-181,702
-21,-25,-983,-140,-840,-770,-174,-189,705
-23,-24,-984,-140,-1050,-770,-181,-177,699
-22,-24,-984,-140,-980,-770,-174,-175,703
-22,-24,-984,-210,-980,-700,-178,-177,705
-23,-25,-984,-140,-1050,-770,-168,-180,700
-23,-25,-983,-70,-980,-770,-171,-175,703
-22,-24,-984,0,-980,-770,-178,-187,706
-22,-25,-984,-70,-980,-770,-184,-175,706
-23,-25,-984,-70,-980,-770,-186,-175,703
-23,-25,-984,-140,-1050,-770,-178,-184,703
-23,-25,-984,-140,-980,-770,-178,-175,702
-23,-25,-984,-210,-980,-770,-166,-175,697
-21,-25,-983,-210,-1050,-770,-177,-169,700
-22,-25,-983,-210,-980,-770,-184,-171,696
-22,-25,-984,-280,-980,-770,-184,-183,705
-21,-25,-983,-280,-910,-770,-180,-175,696
-23,-26,-985,-280,-910,-770,-171,-180,705
-22,-25,-984,-210,-980,-770,-181,-177,703
-22,-25,-984,-280,-910,-770,-178,-172,705
-22,-24,-985,-280,-980,-770,-174,-178,691
-21,-25,-984,-280,-980,-770,-181,-172,705
-23,-24,-985,-280,-910,-770,-177,-184,699
-22,-25,-984,-280,-980,-770,-180,-181,700
-22,-25,-984,-210,-910,-700,-180,-181,709
-23,-25,-985,-210,-980,-770,-177,-175,706
-22,-24,-984,-140,-1050,-770,-181,-192,709
-22,-24,-985,-140,-980,-770,-172,-168,700
-22,-25,-983,-70,-910,-770,-175,-171,703
-23,-25,-984,-70,-910,-770,-178,-169,693
-22,-25,-983,-140,-1050,-770,-174,-174,703
-22,-25,-984,-210,-910,-770,-178,-184,703
-22,-25,-984,-210,-980,-700,-177,-175,706
-22,-26,-983,-280,-980,-700,-166,-186,705
-22,-25,-984,-280,-980,-700,-181,-181,705
-22,-26,-985,-280,-1050,-770,-171,-187,711
-22,-25,-984,-210,-980,-700,-181,-168,700
-22,-24,-984,-280,-910,-700,-178,-184,705
-23,-24,-984,-280,-980,-770,-174,-184,706
-23,-24,-984,-280,-1050,-770,-181,-189,699
-23,-24,-984,-280,-980,-770,-180,-181,697
-23,-25,-984,-210,-980,-700,-172,-172,703
-23,-25,-984,-210,-980,-700,-174,-177,696
-23,-24,-984,-210,-1050,-700,-172,-174,709
-22,-25,-984,-210,-980,-700,-177,-177,702
-22,-25,-983,-210,-980,-770,-180,-177,697
-22,-25,-984,-210,-980,-700,-177,-187,711
-21,-25,-983,-210,-980,-700,-181,-172,702
-22,-24,-984,-350,-1050,-700,-168,-180,697
-22,-25,-984,-350,-980,-700,-180,-178,703
-22,-24,-983,-210,-980,-700,-168,-172,702
-22,-25,-984,-280,-980,-700,-171,-187,702
-22,-25,-984,-210,-910,-700,-178,-178,702
-21,-25,-984,-210,-980,-700,-169,-178,702
-21,-25,-983,-70,-980,-700,-174,-181,687
-22,-25,-984,-140,-980,-770,-177,-181,714
-21,-25,-984,-70,-980,-700,-171,-187,697
-23,-25,-984,-210,-980,-700,-180,-178,700
-22,-24,-984,-210,-980,-770,-181,-181,702
-23,-25,-984,-350,-980,-770,-177,-183,702
-23,-24,-985,-210,-980,-700,-166,-192,699
-22,-24,-984,-210,-980,-770,-177,-187,694
-22,-25,-984,-210,-1120,-700,-172,-177,705
-23,-26,-983,-210,-980,-700,-175,-184,696
-24,-24,-984,-280,-910,-700,-172,-180,702
-22,-25,-985,-210,-1050,-700,-177,-177,696
-22,-24,-983,-210,-1050,-700,-175,-181,711
-23,-25,-984,-140,-980,-700,-181,-171,697
-21,-25,-984,-210,-1050,-770,-183,-183,699
-22,-25,-985,-210,-980,-770,-174,-172,703
-22,-24,-984,-280,-1050,-770,-166,-177,706
-22,-25,-984,-210,-980,-700,-177,-169,696
-23,-26,-985,-280,-1050,-770,-178,-181,700
-23,-24,-985,-280,-840,-700,-177,-183,699
-22,-25,-983,-210,-1050,-770,-174,-184,702
-22,-25,-985,-280,-980,-700,-178,-178,703
-23,-25,-984,-210,-910,-770,-166,-172,696
-22,-25,-985,-210,-910,-770,-180,-183,708
-22,-25,-984,-140,-1050,-700,-180,-175,706
-22,-24,-983,-210,-980,-700,-178,-180,706
-22,-25,-984,-140,-980,-770,-177,-181,691
-22,-25,-984,-140,-1050,-770,-180,-172,706
-22,-24,-985,-140,-840,-700,-169,-177,714
-23,-24,-985,-210,-980,-700,-186,-174,709
-23,-24,-984,-210,-980,-700,-172,-183,708
-23,-23,-984,-210,-980,-770,-187,-177,708
-23,-25,-985,-210,-980,-700,-174,-177,712
-22,-25,-983,-140,-980,-700,-178,-174,709
-23,-24,-984,-140,-910,-700,-177,-178,708
-22,-25,-985,-70,-1050,-770,-180,-172,688
-22,-24,-984,-70,-910,-700,-174,-192,714
-22,-25,-983,-140,-980,-700,-183,-180,706
-22,-24,-984,-210,-980,-700,-168,-171,700
-22,-25,-984,-210,-980,-700,-174,-168,706
-22,-25,-985,-140,-910,-700,-169,-187,712
-22,-25,-985,-140,-980,-770,-174,-190,699
-22,-25,-984,-210,-980,-700,-174,-178,709
-23,-25,-984,-140,-910,-700,-175,-175,715
-23,-25,-984,-210,-980,-700,-174,-178,700
-22,-25,-985,-280,-910,-700,-175,-177,702
-22,-25,-984,-280,-910,-700,-181,-177,708
-22,-24,-984,-280,-910,-770,-180,-186,709
-22,-25,-984,-210,-980,-700,-192,-180,702
-22,-25,-984,-210,-910,-700,-183,-177,699
-23,-24,-983,-280,-980,-770,-174,-187,711
-22,-25,-985,-280,-980,-700,-183,-178,703
-22,-25,-984,-350,-980,-700,-178,-175,708
-22,-25,-984,-280,-980,-700,-177,-180,696
-22,-24,-984,-280,-1050,-770,-172,-181,694
-22,-25,-985,-210,-980,-770,-177,-181,712
-23,-26,-984,-210,-980,-700,-172,-178,702
-22,-25,-985,-280,-980,-700,-177,-175,700
-22,-24,-984,-210,-980,-770,-168,-187,709
-21,-26,-985,-210,-980,-770,-172,-178,711
-23,-25,-984,-140,-980,-770,-175,-190,702
-22,-24,-984,-140,-980,-770,-180,-180,715
-22,-25,-984,-70,-910,-700,-177,-183,700
-22,-25,-984,-70,-980,-770,-169,-180,697
-22,-25,-984,-70,-980,-700,-178,-183,711
-23,-24,-984,-210,-980,-770,-177,-183,718
-22,-25,-984,-280,-980,-770,-175,-181,715
-22,-24,-984,-210,-910,-770,-178,-174,705
-22,-25,-984,-210,-980,-770,-169,-181,702
-23,-24,-985,-140,-910,-700,-175,-183,696
-22,-24,-984,-210,-980,-770,-181,-178,711
-22,-24,-984,-140,-910,-770,-175,-175,709
-22,-24,-983,-140,-1050,-770,-187,-189,708
-21,-25,-985,-70,-980,-700,-174,-183,705
-21,-26,-985,-70,-980,-770,-178,-181,706
-22,-24,-984,-70,-980,-770,-177,-178,703
-22,-25,-985,-210,-980,-770,-172,-177,702
-23,-25,-985,-140,-910,-770,-175,-177,709
-22,-25,-984,-140,-980,-700,-177,-174,700
-23,-25,-984,-210,-980,-770,-184,-177,709
-22,-24,-985,-280,-980,-700,-178,-178,697
-23,-24,-985,-280,-980,-700,-180,-186,697
-23,-25,-984,-350,-980,-700,-175,-184,705
-22,-25,-984,-350,-910,-700,-174,-174,708
-23,-24,-985,-280,-980,-770,-169,-180,717
-23,-25,-985,-280,-980,-770,-178,-169,705
-22,-25,-985,-210,-910,-770,-184,-169,702
-22,-25,-985,-210,-980,-700,-178,-180,696
-23,-24,-985,-140,-910,-770,-180,-178,703
-22,-26,-985,-140,-980,-770,-178,-178,705
-21,-25,-984,-70,-980,-770,-177,-183,709
-23,-25,-984,-70,-980,-770,-175,-178,709
-23,-25,-984,-140,-1050,-770,-175,-186,711
-22,-25,-984,-140,-980,-770,-169,-174,702
-23,-24,-984,-210,-1050,-770,-166,-169,696
-22,-25,-984,-210,-980,-770,-175,-172,711
-22,-25,-984,-280,-1050,-770,-181,-166,705
-22,-25,-985,-280,-980,-700,-183,-187,720
-22,-25,-985,-350,-1050,-770,-172,-178,708
-22,-24,-985,-280,-910,-700,-181,-178,706
-22,-25,-984,-280,-980,-770,-184,-177,709
-22,-26,-984,-210,-980,-700,-174,-171,699
-22,-25,-984,-210,-980,-770,-171,-187,709
-21,-25,-985,-210,-980,-770,-172,-174,694
-23,-26,-984,-140,-910,-770,-177,-183,705
-22,-25,-984,-210,-980,-700,-181,-175,709
-22,-24,-984,-140,-1050,-770,-175,-186,703
-23,-24,-984,-70,-1050,-770,-172,-183,703
-22,-25,-985,-70,-980,-770,-178,-180,714
-22,-25,-984,-140,-980,-770,-175,-177,711
-22,-25,-985,-140,-980,-770,-180,-183,703
-22,-25,-984,-280,-980,-700,-174,-175,702
-22,-24,-984,-280,-980,-700,-180,-175,702
-22,-25,-985,-350,-980,-700,-178,-175,691
-22,-25,-984,-280,-980,-700,-169,-178,700
-23,-25,-985,-350,-980,-700,-186,-180,705
-22,-25,-984,-280,-980,-770,-178,-178,697
-21,-24,-985,-210,-980,-770,-169,-186,708
-23,-25,-984,-210,-980,-770,-184,-184,702
-22,-24,-984,-210,-980,-700,-186,-186,699
-22,-24,-984,-70,-980,-770,-180,-180,699
-22,-24,-985,-140,-980,-770,-180,-175,705
-22,-25,-984,-210,-980,-770,-181,-181,702
-23,-24,-984,-210,-1050,-770,-180,-171,699
-23,-26,-985,-210,-1050,-700,-181,-186,703
-21,-25,-985,-210,-980,-770,-175,-180,696
-22,-25,-984,-280,-980,-770,-178,-175,696
-22,-24,-985,-280,-980,-700,-177,-174,703
-23,-25,-985,-280,-980,-770,-171,-178,705
-23,-24,-984,-280,-910,-700,-181,-177,699
-23,-24,-984,-280,-910,-700,-177,-184,700
-22,-25,-984,-210,-910,-770,-172,-178,693
-23,-25,-984,-210,-1050,-770,-177,-181,699
-23,-25,-985,-140,-980,-770,-175,-178,696
-23,-25,-984,-140,-980,-770,-168,-184,706
-22,-25,-985,-140,-980,-770,-186,-177,697
-22,-25,-985,-140,-1050,-770,-174,-175,700
-21,-25,-984,-140,-1050,-770,-175,-180,699
-22,-25,-984,-140,-980,-770,-171,-183,708
-22,-25,-984,-210,-1050,-770,-168,-178,705
-22,-25,-984,-140,-980,-700,-178,-180,712
-22,-24,-984,-210,-980,-770,-183,-178,696
-22,-25,-985,-210,-980,-770,-178,-177,691
-22,-25,-985,-350,-1050,-700,-172,-174,705
-22,-26,-984,-350,-1050,-700,-174,-163,714
-22,-25,-984,-350,-980,-700,-183,-169,700
-21,-24,-984,-210,-910,-700,-171,-183,699
-22,-25,-984,-280,-1050,-700,-177,-175,696
-22,-24,-984,-210,-980,-770,-184,-172,702
-22,-25,-984,-210,-980,-770,-174,-178,702
-22,-25,-984,-210,-980,-770,-174,-187,696
-21,-25,-984,-140,-980,-770,-181,-181,705
-22,-25,-984,-140,-980,-770,-171,-184,705
-22,-25,-984,-140,-980,-770,-174,-177,699
-22,-25,-985,-140,-1050,-700,-183,-186,702
-22,-24,-984,-140,-980,-770,-172,-184,702
-22,-25,-984,-210,-980,-770,-178,-174,699
-22,-26,-984,-140,-980,-770,-172,-180,709
-22,-25,-984,-210,-980,-770,-178,-174,702
-22,-25,-984,-280,-910,-770,-178,-187,703
-22,-25,-984,-280,-980,-700,-177,-183,699
-22,-25,-984,-280,-1050,-700,-184,-181,702
-22,-24,-985,-210,-910,-770,-172,-181,697
-23,-25,-983,-210,-980,-770,-174,-169,705
-22,-25,-984,-140,-910,-770,-174,-175,699
-23,-25,-984,-140,-980,-770,-175,-177,700
-22,-25,-985,-140,-980,-770,-174,-178,705
-22,-25,-984,-210,-980,-770,-180,-171,708
-22,-25,-984,-210,-980,-700,-171,-177,709
-22,-25,-984,-210,-980,-700,-180,-187,702
-23,-25,-985,-140,-980,-770,-177,-184,702
-22,-25,-984,-140,-980,-770,-184,-186,714
-23,-24,-983,-280,-980,-700,-181,-178,706
-22,-26,-983,-210,-910,-770,-177,-171,703
-22,-25,-984,-210,-980,-770,-181,-177,699
-22,-25,-985,-210,-1050,-770,-177,-181,705
-22,-24,-984,-280,-1050,-700,-174,-181,711
-22,-24,-984,-280,-980,-770,-183,-181,696
-23,-24,-984,-210,-980,-700,-175,-187,708
-22,-24,-984,-210,-980,-700,-169,-180,703
-23,-25,-984,-210,-980,-770,-169,-174,705
-21,-25,-984,-210,-980,-770,-186,-177,700
-22,-25,-985,-210,-980,-700,-180,-175,709
-22,-25,-984,-210,-980,-700,-180,-178,717
-22,-25,-985,-210,-910,-770,-174,-183,700
-23,-24,-984,-210,-1050,-700,-178,-177,709
-22,-24,-984,-210,-1050,-770,-184,-178,705
-23,-25,-984,-210,-1050,-700,-183,-174,705
-22,-25,-984,-210,-980,-770,-172,-183,708
-21,-25,-984,-210,-1050,-770,-175,-180,696
-22,-24,-984,-140,-1050,-770,-177,-183,703
-22,-24,-984,-210,-980,-770,-183,-183,700
-22,-25,-984,-210,-980,-770,-183,-192,708
-22,-25,-984,-210,-910,-770,-180,-181,691
-22,-25,-984,-210,-910,-700,-175,-186,702
-21,-24,-984,-140,-1050,-700,-178,-178,699
-22,-24,-985,-140,-980,-770,-168,-184,706
-23,-25,-984,-140,-1050,-770,-178,-180,705
-22,-24,-984,-140,-980,-700,-168,-174,711
-22,-24,-984,-210,-980,-770,-181,-178,711
-22,-25,-985,-70,-910,-770,-178,-175,706
-22,-25,-984,-70,-980,-770,-178,-177,706
-21,-24,-984,-70,-980,-770,-175,-177,706
-22,-25,-985,0,-980,-770,-180,-177,711
-22,-25,-983,70,-910,-770,-178,-177,708
-22,-26,-984,0,-1050,-770,-178,-168,694
-21,-26,-984,0,-980,-770,-175,-177,700
-22,-25,-982,-70,-1050,-840,-177,-169,702
-22,-25,-985,-140,-630,-770,-178,-184,709
-21,-25,-984,0,-1190,-770,-180,-186,699
-22,-26,-985,-140,-910,-770,-174,-184,711
-22,-26,-983,-70,-1120,-770,-186,-175,697
-22,-25,-985,-280,-910,-770,-172,-184,709
-23,-25,-983,-210,-980,-700,-180,-177,697
-23,-25,-984,-280,-910,-700,-171,-180,700
-23,-25,-983,-210,-980,-700,-178,-171,705
-22,-25,-984,-210,-980,-700,-168,-184,699
-23,-26,-984,-210,-980,-700,-180,-178,694
-21,-26,-985,-210,-980,-700,-169,-177,706
-21,-25,-985,-280,-980,-700,-181,-184,703
-22,-25,-985,-210,-980,-700,-180,-175,703
-22,-25,-984,-280,-980,-700,-169,-181,702
-21,-24,-984,-140,-1050,-770,-169,-178,711
-22,-26,-984,-210,-1050,-770,-175,-181,714
-22,-24,-985,-140,-980,-770,-169,-180,705
-22,-25,-983,-280,-980,-700,-181,-181,699
-22,-25,-984,-210,-980,-770,-168,-180,703
-22,-25,-984,-280,-980,-770,-166,-177,702
-22,-25,-983,-280,-980,-770,-177,-177,715
-22,-25,-984,-350,-980,-700,-172,-181,705
-22,-26,-984,-280,-980,-700,-175,-180,699
-22,-25,-984,-280,-910,-700,-160,-174,703
-22,-25,-984,-280,-980,-700,-174,-175,709
-23,-25,-984,-280,-910,-770,-181,-178,705
-22,-25,-984,-280,-910,-770,-175,-183,703
-22,-25,-984,-210,-910,-700,-175,-171,708
-22,-25,-984,-210,-980,-770,-172,-181,705
-23,-25,-984,-70,-980,-770,-175,-180,705
-23,-25,-985,-140,-980,-770,-181,-177,699
-23,-25,-984,-140,-980,-770,-171,-189,696
-23,-25,-984,-280,-980,-700,-174,-175,703
-22,-26,-985,-280,-910,-700,-178,-181,703
-22,-24,-984,-280,-980,-700,-181,-181,697
-22,-25,-984,-280,-980,-700,-175,-178,699
-22,-25,-984,-280,-980,-700,-183,-184,699
-23,-25,-984,-280,-980,-700,-178,-184,700
-23,-25,-984,-210,-980,-770,-166,-178,700
-23,-25,-984,-210,-980,-770,-177,-177,702
-23,-24,-984,-210,-980,-770,-172,-178,708
-23,-25,-984,-210,-980,-770,-166,-175,706
-22,-25,-985,-210,-980,-700,-178,-171,703
-23,-25,-984,-280,-980,-700,-165,-180,703
-22,-25,-983,-280,-980,-700,-169,-181,706
-22,-25,-984,-210,-980,-770,-180,-174,700
-22,-25,-985,-280,-980,-770,-180,-169,709
-23,-25,-985,-280,-980,-770,-171,-183,699
-22,-24,-985,-280,-910,-700,-177,-178,706
-23,-24,-984,-210,-910,-700,-171,-183,703
-22,-25,-984,-210,-910,-770,-186,-183,702
-23,-25,-984,-210,-980,-770,-175,-184,708
-23,-25,-985,-140,-980,-770,-174,-181,699
-23,-25,-984,-140,-980,-770,-181,-175,706
-23,-25,-985,-140,-980,-700,-165,-178,706
-22,-25,-984,-140,-980,-770,-174,-183,706
-22,-24,-985,-210,-910,-700,-180,-186,702
-22,-24,-985,-210,-980,-700,-174,-171,703
-22,-24,-984,-210,-980,-770,-178,-175,708
-22,-25,-985,-210,-980,-770,-171,-180,705
-23,-25,-984,-210,-980,-770,-172,-190,702
-23,-25,-984,-140,-910,-770,-175,-181,703
-22,-25,-985,-210,-980,-770,-181,-177,709
-22,-25,-984,-210,-980,-770,-172,-187,708
-22,-26,-985,-210,-1050,-770,-181,-177,700
-23,-24,-984,-210,-910,-770,-175,-187,708
-22,-25,-985,-210,-980,-770,-174,-177,700
-23,-25,-984,-210,-980,-770,-165,-181,703
-22,-26,-984,-280,-1050,-770,-174,-189,699
-22,-25,-985,-140,-910,-700,-177,-180,708
-23,-25,-984,-140,-910,-700,-178,-181,700
-22,-24,-984,-210,-1050,-770,-163,-171,708
-22,-25,-985,-140,-910,-700,-177,-174,705
-23,-26,-984,-210,-1050,-770,-166,-172,712
-23,-25,-984,-210,-980,-700,-174,-184,700
-23,-25,-984,-210,-1050,-770,-171,-180,703
-22,-24,-985,-140,-980,-770,-174,-180,714
-22,-25,-985,-280,-1050,-770,-181,-184,705
-22,-25,-984,-210,-980,-770,-181,-171,708
-23,-25,-985,-280,-980,-770,-181,-181,700
-22,-23,-984,-280,-980,-700,-171,-183,705
-22,-25,-984,-210,-1050,-700,-172,-181,700
-22,-24,-985,-210,-1050,-770,-174,-174,699
-22,-25,-984,-210,-980,-770,-166,-174,702
-21,-24,-985,-280,-980,-770,-181,-180,712
-22,-24,-984,-280,-980,-770,-174,-181,708
-22,-25,-984,-210,-1050,-770,-175,-180,705
-23,-24,-985,-140,-980,-700,-177,-175,705
-23,-25,-985,-210,-1050,-770,-174,-180,703
-22,-25,-985,-210,-980,-770,-171,-172,705
-23,-24,-984,-210,-980,-770,-172,-168,702
-22,-25,-985,-140,-980,-700,-190,-189,715
-23,-24,-985,-210,-980,-700,-172,-174,712
-22,-24,-985,-140,-980,-770,-174,-184,709
-22,-24,-985,-140,-980,-770,-175,-172,703
-22,-25,-984,-210,-980,-770,-178,-178,702
-22,-26,-985,-210,-980,-770,-168,-183,703
-22,-25,-985,-280,-980,-700,-181,-177,703
-22,-25,-986,-210,-980,-770,-177,-172,702
-22,-25,-985,-210,-980,-770,-184,-180,712
-22,-26,-984,-210,-980,-770,-171,-178,699
-21,-26,-985,-210,-980,-770,-177,-171,705
-23,-24,-985,-210,-910,-770,-175,-180,703
-22,-23,-984,-210,-980,-700,-178,-181,702
-23,-24,-984,-210,-910,-700,-168,-177,711
-22,-24,-984,-210,-980,-770,-180,-175,705
-22,-24,-985,-140,-1050,-770,-169,-175,696
-22,-24,-984,-140,-980,-770,-181,-177,706
-22,-25,-985,-210,-980,-700,-171,-174,703
-22,-25,-984,-210,-980,-770,-168,-178,708
-22,-25,-985,-210,-980,-770,-183,-175,700
-22,-25,-984,-280,-1050,-700,-184,-177,709
-22,-25,-985,-280,-980,-700,-171,-178,696
-22,-25,-985,-210,-980,-770,-186,-186,696
-22,-25,-985,-210,-980,-770,-175,-178,712
-22,-24,-985,-350,-980,-770,-174,-180,718
-23,-24,-984,-280,-910,-700,-172,-174,691
-22,-24,-985,-210,-910,-700,-175,-174,706
-22,-26,-985,-210,-910,-770,-178,-177,706
-22,-25,-986,-210,-910,-770,-171,-180,706
-22,-25,-985,-140,-980,-770,-165,-178,709
-23,-24,-985,-210,-980,-700,-172,-180,705
-22,-25,-985,-140,-980,-770,-180,-186,711
-22,-25,-985,-140,-980,-770,-166,-178,702
-21,-25,-984,-210,-980,-770,-171,-186,703
-22,-24,-985,-210,-910,-700,-177,-172,700
-23,-24,-985,-210,-980,-700,-174,-184,696
-22,-26,-984,-210,-910,-700,-183,-178,702
-22,-25,-984,-210,-980,-700,-177,-177,697
-22,-25,-985,-210,-1050,-770,-178,-178,697
-22,-24,-985,-210,-980,-770,-175,-172,691
-22,-24,-985,-210,-980,-700,-189,-175,699
-22,-25,-984,-210,-980,-700,-177,-172,699
-23,-24,-984,-210,-980,-770,-172,-174,705
-22,-25,-986,-210,-980,-700,-172,-177,705
-23,-25,-984,-210,-980,-770,-181,-181,697
-22,-24,-985,-210,-980,-700,-177,-178,709
-21,-25,-985,-140,-980,-770,-171,-180,697
-22,-25,-985,-140,-910,-700,-175,-184,700
-22,-25,-985,-140,-980,-770,-177,-174,700
-21,-25,-984,-140,-980,-770,-178,-180,708
-22,-25,-984,-210,-910,-770,-177,-174,697
-22,-25,-984,-210,-1050,-770,-181,-175,711
-23,-25,-984,-210,-910,-770,-178,-184,700
-22,-25,-985,-280,-980,-700,-172,-174,705
-22,-25,-986,-210,-980,-770,-171,-175,700
-23,-25,-985,-280,-1050,-770,-183,-180,703
-23,-25,-985,-210,-910,-770,-169,-183,706
-22,-25,-984,-280,-1050,-770,-189,-174,694
-23,-25,-984,-280,-980,-700,-178,-186,717
-23,-25,-985,-280,-980,-770,-178,-174,702
-22,-25,-985,-210,-980,-700,-184,-178,703
-22,-25,-984,-140,-980,-770,-178,-180,706
-22,-25,-984,-210,-980,-770,-184,-180,697
-23,-25,-985,-140,-980,-770,-177,-175,702
-22,-25,-985,-210,-910,-700,-175,-174,706
-23,-25,-983,-140,-980,-770,-178,-181,699
-22,-25,-984,-210,-980,-770,-181,-175,694
-23,-25,-984,-140,-910,-700,-166,-172,700
-22,-25,-985,-280,-980,-770,-175,-174,706
-23,-24,-985,-210,-980,-770,-175,-175,700
-22,-25,-985,-280,-1050,-770,-168,-183,706
-22,-25,-985,-210,-980,-770,-169,-187,700
-22,-25,-985,-280,-980,-770,-180,-177,708
-22,-25,-985,-280,-1050,-770,-192,-177,700
-21,-24,-985,-140,-910,-700,-183,-175,708
-22,-25,-984,-210,-980,-700,-178,-180,700
-23,-26,-984,-210,-980,-770,-184,-181,694
-23,-25,-985,-210,-980,-770,-184,-177,706
-22,-25,-984,-280,-980,-700,-171,-174,703
-22,-25,-985,-350,-980,-700,-171,-190,703
-22,-25,-985,-350,-980,-700,-178,-181,705
-22,-25,-985,-280,-980,-770,-175,-172,699
-22,-25,-985,-210,-980,-700,-168,-174,703
-22,-25,-984,-280,-980,-700,-172,-189,702
-23,-25,-984,-210,-980,-700,-171,-175,715
-22,-25,-984,-140,-980,-840,-175,-177,705
-23,-24,-984,-140,-980,-770,-169,-174,714
-22,-25,-985,-140,-980,-770,-177,-187,712
-23,-25,-985,-210,-980,-770,-177,-171,711
-22,-26,-984,-210,-980,-770,-181,-186,708
-21,-25,-985,-210,-1050,-700,-184,-181,709
-23,-25,-985,-210,-1050,-770,-172,-172,706
-22,-25,-984,-280,-980,-770,-172,-180,702
-22,-24,-984,-280,-980,-770,-181,-177,711
-22,-26,-985,-280,-980,-700,-172,-181,709
-23,-24,-984,-210,-980,-770,-180,-178,703
-22,-25,-985,-280,-910,-700,-180,-178,706
-23,-25,-985,-210,-980,-700,-183,-177,703
-22,-25,-984,-140,-980,-770,-171,-180,711
-22,-25,-985,-140,-980,-770,-174,-183,708
-22,-25,-984,-140,-980,-700,-177,-181,715
-22,-25,-984,-140,-980,-770,-174,-174,706
-23,-26,-984,-140,-980,-770,-177,-183,706
-22,-25,-983,-140,-980,-770,-178,-183,700
-22,-25,-985,-210,-1050,-770,-184,-186,705
-22,-25,-984,-210,-1050,-770,-171,-180,700
-24,-24,-985,-280,-1050,-770,-174,-183,702
-22,-24,-985,-280,-980,-700,-183,-184,700
-22,-25,-984,-280,-980,-700,-183,-183,703
-24,-25,-985,-280,-980,-770,-180,-180,709
-23,-25,-984,-280,-980,-700,-184,-180,706
-23,-25,-985,-210,-1050,-770,-180,-181,711
-23,-25,-984,-210,-980,-770,-174,-181,711
-21,-26,-984,-210,-1050,-770,-177,-183,706
-22,-24,-985,-210,-980,-700,-178,-181,706
-22,-25,-984,-210,-1050,-700,-175,-174,702
-23,-24,-985,-210,-910,-770,-175,-178,709
-23,-25,-984,-210,-980,-700,-175,-171,700
-22,-25,-985,-140,-980,-700,-177,-181,712
-22,-25,-984,-210,-980,-700,-178,-175,702
-23,-25,-985,-210,-1050,-770,-171,-192,702
-22,-24,-985,-140,-980,-770,-172,-169,703
-22,-25,-985,-210,-1050,-770,-177,-184,703
-21,-25,-984,-140,-980,-770,-169,-178,703
-22,-24,-985,-280,-980,-700,-174,-187,702
-22,-25,-984,-280,-980,-700,-175,-181,702
-22,-25,-984,-280,-980,-770,-175,-175,703
-22,-25,-984,-210,-980,-700,-180,-177,705
-22,-25,-985,-280,-1050,-700,-175,-183,699
-22,-25,-984,-280,-980,-770,-172,-184,715
-21,-25,-985,-280,-980,-700,-171,-180,706
-22,-24,-985,-210,-980,-770,-177,-189,706
-22,-25,-984,-140,-910,-700,-175,-181,712
-22,-24,-985,-140,-980,-700,-172,-183,711
-23,-25,-986,-140,-980,-770,-178,-178,708
-23,-25,-984,-210,-980,-770,-174,-172,699
-21,-25,-983,-210,-910,-700,-169,-171,703
-22,-24,-985,-70,-980,-700,-172,-172,697
-21,-24,-985,-210,-910,-700,-174,-178,709
-22,-25,-984,-280,-980,-770,-172,-183,709
-22,-24,-985,-210,-910,-770,-180,-183,705
-22,-25,-984,-140,-1050,-770,-178,-171,715
-22,-25,-985,-70,-910,-770,-169,-168,708
-22,-25,-985,-140,-980,-770,-171,-169,708
-22,-24,-984,-210,-980,-770,-171,-175,709
-22,-25,-984,-140,-910,-770,-168,-189,711
-23,-24,-984,-140,-980,-770,-178,-180,706
-22,-25,-984,-140,-910,-770,-177,-177,700
-22,-25,-983,-140,-980,-770,-174,-171,709
-22,-25,-984,-70,-910,-770,-180,-178,703
-22,-25,-984,-140,-980,-770,-169,-180,703
-21,-27,-984,-210,-980,-770,-171,-180,709
-21,-25,-984,-280,-910,-770,-175,-175,705
-22,-25,-985,-350,-980,-700,-168,-177,712
-22,-25,-984,-350,-910,-700,-177,-175,706
-22,-26,-984,-210,-910,-770,-172,-180,705
-22,-26,-984,-140,-980,-770,-174,-175,708
-22,-24,-984,-210,-980,-770,-178,-183,706
-22,-25,-984,-140,-980,-770,-181,-180,703
-22,-24,-985,-140,-980,-840,-169,-174,712
-22,-24,-984,-140,-1050,-770,-180,-177,706
-22,-24,-984,-210,-840,-770,-177,-178,718
-23,-25,-984,-140,-1050,-770,-171,-181,715
-23,-25,-984,-210,-980,-770,-175,-174,714
-22,-24,-984,-210,-980,-770,-178,-183,709
-22,-25,-985,-210,-910,-770,-180,-189,714
-22,-26,-985,-140,-980,-770,-180,-177,708
-22,-25,-984,-210,-980,-770,-171,-190,712
-22,-25,-984,-210,-910,-700,-169,-183,702
-22,-25,-985,-210,-980,-770,-178,-178,706
-22,-25,-985,-140,-980,-770,-178,-181,709
-22,-25,-984,-140,-980,-770,-184,-184,706
-21,-25,-984,-140,-910,-700,-184,-178,705
-22,-24,-984,-70,-980,-770,-175,-184,700
-23,-26,-985,-70,-980,-770,-183,-169,697
-22,-26,-985,-140,-1050,-770,-175,-178,708
-22,-25,-985,-140,-980,-700,-174,-181,703
-22,-24,-984,-140,-980,-770,-171,-184,711
-23,-25,-984,-70,-980,-700,-174,-178,706
-22,-25,-984,-210,-980,-770,-183,-180,706
-22,-25,-984,-210,-1050,-770,-172,-181,709
-21,-25,-984,-210,-980,-700,-169,-186,705
-22,-24,-984,-210,-1050,-770,-171,-183,705
-22,-25,-984,-210,-840,-770,-178,-180,708
-22,-25,-985,-210,-980,-770,-172,-189,712
-22,-25,-985,-140,-980,-700,-175,-186,699
-21,-25,-984,-140,-980,-700,-174,-180,700
-22,-25,-984,-70,-980,-770,-178,-175,703
-21,-26,-984,-140,-980,-770,-168,-184,708
-22,-25,-985,-70,-980,-770,-181,-180,696
-22,-24,-984,-140,-980,-770,-183,-177,709
-21,-26,-985,-70,-980,-770,-171,-183,705
-22,-25,-985,-70,-910,-770,-171,-175,703
-23,-26,-984,-70,-980,-770,-181,-177,706
-22,-26,-985,-140,-980,-770,-181,-166,703
-22,-26,-985,-210,-1050,-840,-171,-178,705
-23,-25,-986,-140,-910,-770,-175,-181,702
-22,-26,-985,-210,-1050,-770,-175,-181,700
-22,-26,-985,-140,-980,-770,-171,-177,703
-22,-25,-984,-210,-1050,-700,-175,-175,705
-23,-26,-985,-210,-980,-770,-178,-183,706
-22,-26,-985,-280,-1050,-700,-178,-183,714
-23,-26,-985,-210,-980,-700,-180,-177,712
-22,-25,-984,-210,-980,-700,-177,-183,699
-22,-25,-984,-280,-980,-770,-174,-180,709
-21,-25,-984,-280,-910,-770,-165,-183,709
-23,-26,-984,-280,-980,-700,-183,-187,708
-22,-25,-985,-210,-980,-700,-181,-181,708
-22,-25,-984,-210,-980,-700,-186,-187,697
-22,-26,-986,-140,-980,-700,-177,-178,712
-23,-25,-983,-140,-1050,-770,-172,-183,700
-22,-24,-984,-140,-980,-770,-175,-178,706
-22,-25,-985,-140,-1050,-770,-175,-177,711
-22,-26,-985,-140,-980,-700,-172,-183,706
-21,-25,-985,-140,-980,-700,-175,-183,711
-23,-25,-985,-210,-1050,-700,-174,-171,699
-22,-26,-984,-140,-980,-700,-171,-178,705
-21,-26,-984,-210,-1050,-770,-168,-166,703
-22,-25,-985,-210,-1050,-770,-181,-172,697
-22,-25,-984,-280,-980,-700,-172,-183,714
-22,-25,-985,-280,-980,-770,-174,-163,699
-23,-25,-985,-280,-980,-700,-180,-184,708
-22,-26,-985,-280,-910,-700,-166,-178,705
-22,-25,-983,-280,-980,-700,-177,-174,709
-22,-26,-987,-210,-910,-700,-177,-171,699
-23,-26,-985,-70,-1120,-770,-171,-181,703
-22,-25,-984,-140,-1120,-700,-171,-172,708
-22,-25,-985,-210,-910,-700,-177,-184,703
-23,-25,-985,-210,-980,-700,-178,-180,705
-22,-24,-984,-280,-980,-770,-177,-180,703
-22,-26,-987,-210,-980,-770,-181,-192,712
-22,-25,-983,-140,-910,-770,-175,-175,703
-21,-25,-982,-140,-910,-700,-184,-177,705
-23,-26,-988,-140,-910,-770,-171,-181,708
-21,-25,-981,0,-1120,-770,-178,-186,705
-23,-26,-986,-70,-840,-770,-180,-177,705
-22,-25,-984,0,-1120,-770,-169,-180,715
-23,-24,-985,-70,-980,-770,-162,-177,712
-23,-26,-984,-140,-980,-770,-168,-178,708
-22,-26,-985,-140,-980,-770,-184,-180,702
-22,-26,-985,-140,-980,-770,-178,-178,690
-21,-24,-984,-210,-1050,-700,-175,-178,694
-22,-26,-984,-280,-980,-770,-177,-165,696
-22,-26,-984,-210,-1050,-700,-171,-181,700
-23,-26,-984,-280,-980,-770,-165,-181,708
-22,-25,-985,-210,-980,-700,-172,-180,699
-22,-26,-985,-210,-980,-770,-172,-180,711
-22,-25,-984,-140,-980,-700,-171,-172,703
-23,-26,-984,-140,-980,-770,-175,-177,715
-23,-25,-984,-210,-910,-770,-172,-180,705
-21,-25,-985,-140,-910,-770,-174,-187,703
-22,-25,-985,-210,-1050,-770,-183,-177,694
-22,-25,-984,-140,-910,-700,-169,-181,705
-22,-26,-985,-280,-980,-770,-181,-177,708
-22,-26,-985,-210,-910,-840,-178,-175,705
-22,-25,-984,-210,-980,-770,-183,-186,705
-21,-25,-984,-210,-910,-700,-177,-178,700
-22,-25,-983,-210,-1050,-770,-180,-187,712
-22,-25,-985,-210,-910,-770,-181,-171,711
-22,-25,-983,-210,-1050,-770,-177,-177,705
-22,-25,-985,-280,-980,-700,-174,-174,700
-22,-26,-984,-210,-980,-700,-178,-181,694
-23,-25,-985,-210,-980,-700,-180,-172,705
-22,-25,-984,-210,-980,-770,-172,-177,697
-23,-25,-984,-210,-980,-700,-177,-181,696
-22,-25,-984,-210,-980,-770,-171,-177,694
-22,-26,-984,-210,-1050,-770,-177,-184,711
-22,-25,-984,-210,-980,-770,-174,-177,706
-22,-25,-985,-210,-980,-770,-189,-181,693
-22,-25,-984,-210,-910,-700,-174,-186,702
-22,-25,-984,-210,-980,-770,-171,-178,706
-23,-26,-985,-210,-980,-770,-178,-186,700
-23,-26,-984,-280,-1050,-770,-168,-184,703
-21,-25,-984,-280,-980,-770,-171,-178,700
-22,-26,-984,-210,-980,-770,-177,-174,696
-22,-26,-984,-280,-1050,-770,-172,-192,705
-22,-26,-983,-210,-910,-700,-175,-177,705
-23,-25,-985,-280,-980,-770,-177,-180,709
-21,-26,-984,-210,-980,-770,-172,-175,709
-23,-25,-984,-280,-980,-700,-165,-184,699
-22,-25,-984,-280,-1050,-700,-177,-183,705
-22,-25,-985,-280,-980,-700,-178,-184,714
-21,-26,-984,-210,-980,-770,-177,-184,700
-22,-25,-985,-210,-980,-770,-168,-177,711
-22,-25,-985,-210,-980,-770,-174,-165,711
-22,-26,-984,-210,-980,-770,-178,-186,709
-22,-25,-985,-210,-980,-700,-184,-175,700
-22,-25,-984,-140,-980,-700,-175,-172,699
-22,-25,-985,-140,-980,-770,-168,-166,700
-23,-26,-984,-140,-910,-770,-180,-177,702
-22,-26,-984,-210,-980,-770,-177,-181,702
-22,-26,-985,-140,-980,-770,-174,-181,708
-22,-26,-984,-210,-1050,-770,-184,-180,699
-22,-25,-983,-210,-980,-770,-184,-180,711
-23,-25,-984,-210,-980,-770,-177,-186,703
-22,-25,-984,-210,-980,-700,-174,-169,705
-23,-26,-984,-140,-980,-700,-181,-177,705
-22,-25,-985,-280,-980,-700,-178,-175,696
-22,-25,-985,-350,-980,-770,-177,-175,705
-22,-25,-986,-280,-980,-770,-174,-184,703
-22,-26,-985,-210,-980,-770,-171,-186,709
-21,-26,-985,-210,-980,-700,-174,-172,706
-22,-25,-984,-210,-1050,-770,-175,-181,708
-22,-25,-985,-280,-980,-770,-178,-189,708
-23,-25,-985,-280,-1050,-770,-172,-180,706
-22,-25,-984,-280,-980,-770,-177,-186,702
-22,-25,-984,-280,-1050,-770,-171,-175,700
-21,-25,-984,-280,-980,-700,-169,-174,705
-22,-26,-984,-280,-980,-770,-172,-180,700
-22,-26,-984,-210,-980,-770,-172,-184,705
-23,-25,-983,-280,-910,-700,-172,-178,700
-22,-24,-983,-280,-980,-770,-181,-175,711
-22,-25,-984,-350,-980,-770,-180,-180,702
-22,-25,-986,-280,-1050,-770,-175,-178,705
-22,-25,-984,-210,-1050,-700,-172,-180,694
-22,-25,-985,-280,-1050,-770,-174,-181,712
-22,-25,-984,-210,-980,-700,-178,-181,690
-21,-25,-985,-210,-980,-770,-177,-175,703
-22,-25,-985,-210,-980,-700,-177,-171,697
-21,-26,-985,-280,-980,-700,-184,-186,700
-22,-25,-983,-280,-1050,-700,-172,-180,699
-22,-26,-984,-280,-980,-700,-169,-169,709
-22,-25,-984,-280,-980,-770,-184,-180,699
-23,-24,-985,-210,-910,-700,-181,-184,717
-23,-25,-984,-210,-980,-700,-171,-181,703
-21,-26,-984,-210,-910,-700,-177,-184,708
-22,-26,-984,-140,-980,-770,-171,-186,708
-22,-25,-985,-140,-910,-770,-186,-180,697
-22,-25,-984,-140,-980,-700,-177,-172,697
-23,-25,-985,-210,-910,-700,-180,-187,708
-22,-24,-984,-210,-980,-770,-171,-184,702
-22,-25,-985,-210,-910,-770,-172,-175,709
-23,-26,-984,-140,-980,-770,-177,-178,708
-22,-25,-984,-140,-1050,-770,-178,-175,694
-23,-25,-984,-140,-910,-700,-163,-178,696
-22,-25,-984,-210,-1050,-700,-172,-181,703
-22,-26,-984,-140,-980,-770,-174,-181,697
-22,-25,-984,-210,-980,-770,-171,-178,714
-22,-26,-985,-140,-910,-770,-174,-174,703
-22,-25,-984,-210,-980,-770,-171,-171,702
-23,-25,-984,-210,-980,-700,-169,-181,706
-22,-26,-984,-210,-980,-770,-169,-181,705
-21,-25,-985,-210,-910,-770,-181,-184,709
-22,-27,-983,-210,-980,-770,-169,-169,700
-22,-25,-984,-280,-980,-770,-174,-183,705
-23,-25,-984,-210,-980,-770,-174,-181,705
-22,-25,-984,-210,-1050,-700,-171,-186,709
-23,-25,-984,-140,-980,-770,-178,-172,705
-23,-25,-984,-210,-980,-770,-175,-180,709
-22,-24,-984,-140,-980,-770,-172,-181,711
-22,-25,-985,-210,-1050,-770,-169,-181,712
-22,-26,-984,-140,-1050,-770,-171,-175,700
-21,-25,-985,-280,-980,-770,-177,-180,712
-23,-26,-984,-210,-1050,-770,-175,-180,699
-22,-25,-984,-280,-980,-770,-183,-174,706
-21,-26,-984,-210,-980,-770,-178,-175,712
-22,-25,-984,-280,-980,-770,-175,-189,703
-22,-25,-984,-280,-980,-700,-177,-181,714
-23,-26,-985,-210,-980,-770,-180,-186,696
-22,-26,-984,-210,-980,-770,-172,-181,708
-23,-24,-985,-140,-980,-700,-166,-183,697
-22,-25,-983,-210,-980,-700,-172,-165,702
-22,-24,-984,-140,-980,-770,-168,-177,699
-22,-26,-984,-210,-980,-770,-184,-183,706
-22,-25,-984,-210,-980,-700,-178,-186,703
-22,-25,-984,-210,-980,-700,-177,-186,691
-22,-25,-984,-210,-980,-770,-178,-180,693
-23,-25,-985,-210,-910,-770,-174,-177,711
-22,-24,-984,-210,-980,-770,-177,-172,712
-22,-26,-984,-210,-980,-770,-175,-180,705
-22,-25,-984,-210,-980,-770,-175,-181,709
-22,-25,-984,-210,-980,-770,-177,-184,700
-22,-25,-984,-210,-980,-770,-174,-192,711
-22,-26,-984,-140,-980,-770,-177,-178,699
-22,-24,-984,-140,-980,-770,-172,-178,705
-22,-25,-984,-210,-980,-770,-174,-174,706
-22,-25,-984,-210,-980,-770,-174,-184,706
-22,-25,-983,-280,-980,-770,-166,-180,708
-22,-26,-985,-280,-910,-700,-169,-180,699
-22,-26,-985,-140,-910,-700,-168,-181,699
-21,-25,-984,-210,-980,-770,-172,-183,700
-21,-24,-984,-210,-980,-770,-168,-165,711
-23,-25,-984,-210,-1050,-700,-180,-187,711
-22,-26,-984,-210,-980,-700,-177,-174,699
-23,-25,-984,-210,-1050,-700,-175,-178,706
-22,-26,-984,-210,-980,-770,-171,-178,703
-23,-25,-983,-280,-1050,-770,-180,-178,703
-22,-26,-984,-140,-980,-770,-175,-174,703
-21,-26,-984,-210,-980,-770,-171,-178,708
-22,-25,-983,-280,-980,-770,-171,-177,706
-22,-25,-985,-280,-1050,-770,-189,-174,705
-22,-25,-984,-210,-1050,-770,-172,-180,702
-22,-25,-984,-280,-980,-700,-180,-189,696
-22,-25,-984,-210,-980,-770,-174,-183,705
-23,-25,-985,-140,-1050,-770,-178,-183,699
-23,-26,-984,-210,-1050,-770,-180,-180,703
-21,-25,-985,-140,-1050,-770,-174,-184,703
-23,-26,-986,-140,-1120,-770,-172,-181,700
-23,-26,-981,-70,-840,-700,-171,-178,694
-22,-25,-986,-140,-630,-770,-180,-180,703
-23,-25,-984,70,-1330,-770,-172,-189,697
-23,-25,-983,-70,-910,-840,-178,-180,696
-22,-25,-985,-140,-980,-770,-171,-183,697
-23,-25,-983,-210,-1190,-770,-174,-183,702
-22,-25,-984,-350,-980,-770,-174,-171,708
-23,-25,-984,-350,-1120,-700,-172,-175,706
-23,-26,-984,-420,-1190,-770,-175,-169,693
-22,-25,-983,-490,-840,-700,-169,-180,709
-23,-25,-986,-490,-1050,-770,-178,-184,705
-22,-25,-982,-420,-1260,-700,-159,-189,694
-22,-25,-985,-630,-840,-700,-177,-189,699
-22,-25,-984,-560,-1260,-700,-175,-187,709
-23,-24,-983,-560,-1050,-700,-180,-181,706
-22,-25,-985,-630,-1050,-700,-177,-181,700
-22,-25,-981,-770,-1050,-700,-178,-184,705
-23,-25,-985,-770,-770,-630,-178,-180,709
-23,-25,-984,-560,-1470,-700,-178,-183,705
-23,-25,-984,-840,-1120,-700,-169,-175,705
-23,-25,-983,-770,-840,-700,-168,-181,703
-23,-25,-985,-770,-1260,-770,-168,-177,706
-23,-24,-983,-700,-1260,-700,-174,-183,703
-24,-24,-985,-700,-1190,-700,-172,-184,699
-23,-23,-983,-630,-1120,-700,-183,-172,705
-23,-24,-985,-630,-1050,-700,-177,-184,696
-23,-23,-984,-630,-1120,-700,-169,-180,702
-23,-24,-983,-700,-1050,-700,-165,-186,699
-24,-24,-986,-630,-1050,-700,-171,-172,705
-21,-23,-980,-490,-770,-700,-171,-171,705
-23,-25,-988,-840,-630,-700,-169,-180,694
-23,-22,-981,-630,-1540,-700,-174,-171,690
-23,-23,-987,-1120,-770,-700,-168,-183,706
-22,-22,-982,-840,-1400,-700,-172,-187,703
-23,-23,-985,-1050,-910,-630,-178,-178,702
-23,-24,-983,-770,-1260,-700,-180,-180,699
-23,-23,-985,-770,-980,-700,-187,-171,690
-23,-23,-983,-700,-1260,-700,-174,-175,700
-21,-22,-979,-770,-1120,-700,-180,-183,706
-23,-23,-988,-770,-910,-770,-174,-180,685
-23,-23,-984,-490,-1750,-770,-177,-171,699
-22,-23,-981,-1190,-910,-700,-175,-178,703
-23,-21,-985,-1470,-1050,-630,-175,-184,706
-23,-21,-985,-1680,-1610,-700,-183,-178,700
-23,-21,-983,-1820,-1330,-630,-168,-177,703
-24,-21,-984,-2100,-1470,-630,-168,-177,709
-24,-20,-986,-2170,-1610,-630,-171,-175,694
-23,-21,-980,-2450,-1330,-630,-175,-186,705
-25,-19,-985,-2240,-1050,-630,-178,-184,694
-24,-19,-986,-1820,-2100,-700,-186,-168,697
-23,-20,-981,-1820,-1400,-700,-178,-174,699
-24,-19,-984,-1750,-910,-630,-184,-177,705
-24,-19,-984,-1890,-1610,-630,-175,-183,703
-24,-18,-981,-2660,-1680,-560,-178,-172,693
-25,-15,-982,-3430,-1260,-420,-174,-172,706
-26,-16,-986,-3850,-2100,-490,-174,-181,706
-26,-13,-984,-2730,-2100,-560,-175,-186,699
-25,-16,-986,-2660,-1540,-630,-174,-175,703
-25,-16,-982,-1540,-1470,-630,-169,-186,700
-25,-14,-985,-2100,-700,-630,-178,-165,702
-24,-16,-984,-1960,-1470,-630,-172,-178,705
-25,-13,-982,-1820,-1260,-560,-172,-180,709
-26,-15,-984,-2660,-1400,-560,-169,-183,706
-25,-14,-984,-2520,-1540,-490,-171,-172,711
-26,-11,-984,-2240,-1820,-560,-177,-180,711
-25,-12,-984,-1610,-1470,-630,-177,-186,697
-24,-13,-983,-910,-1680,-700,-184,-183,706
-26,-13,-983,-1190,-1400,-630,-171,-175,703
-25,-11,-985,-1610,-1610,-630,-177,-181,700
-26,-12,-983,-1750,-1680,-630,-181,-180,706
-25,-11,-985,-1820,-1540,-630,-166,-184,711
-25,-11,-983,-1750,-1680,-630,-180,-190,702
-26,-12,-984,-1330,-1610,-630,-184,-175,706
-26,-11,-982,-770,-1680,-700,-180,-186,708
-25,-12,-978,-770,-1680,-700,-174,-174,703
-28,-7,-989,-3570,-2520,-560,-175,-187,709
-27,-7,-984,-7630,-3570,-490,-175,-183,696
-27,-9,-984,-5530,-3220,-490,-172,-172,712
-29,-8,-984,-4270,-3150,-420,-186,-165,693
-29,-4,-986,-5880,-3220,-490,-180,-183,705
-29,-2,-983,-6440,-3010,-630,-177,-174,697
-29,-5,-984,-4550,-2240,-770,-168,-178,702
-28,-4,-985,-3430,-2030,-630,-178,-175,715
-28,-1,-984,-5390,-2240,-560,-177,-174,705
-29,-1,-984,-7280,-1960,-350,-175,-178,705
-30,-1,-984,-8820,-2030,-210,-183,-175,708
-30,7,-982,-11480,-2170,70,-184,-177,706
-30,13,-983,-15610,-1890,560,-177,-174,714
-29,14,-981,-13090,-1960,280,-187,-181,703
-30,12,-983,-7910,-1540,-70,-190,-181,714
-31,8,-984,-2660,-1820,-420,-184,-178,714
-30,8,-985,-910,-2030,-630,-187,-180,708
-31,11,-985,-3710,-2100,-560,-187,-169,706
-31,11,-986,-7980,-2170,-350,-189,-169,703
-31,14,-986,-13020,-2520,280,-184,-174,703
-31,21,-983,-18830,-2380,770,-189,-180,708
-33,27,-983,-23450,-2240,980,-193,-172,706
-33,38,-980,-25060,-2310,1050,-195,-163,715
-33,39,-982,-19250,-2100,280,-196,-171,709
-33,40,-984,-15540,-2240,140,-193,-183,720
-33,43,-982,-14560,-2100,140,-198,-171,718
-34,47,-982,-15330,-1890,350,-202,-184,717
-32,48,-980,-17710,-2380,1190,-210,-177,706
-33,53,-981,-19670,-3010,2170,-207,-171,714
-33,56,-979,-18970,-3570,1540,-199,-180,714
-34,59,-980,-16660,-3710,840,-205,-175,714
-35,62,-981,-14350,-4340,140,-210,-177,718
-36,65,-980,-11970,-4620,-210,-202,-177,714
-37,65,-982,-9520,-4480,-280,-202,-175,717
-40,69,-988,-9100,-4620,700,-213,-169,702
-36,62,-978,-13720,-2450,2730,-207,-169,715
-37,70,-981,-17640,-1470,3430,-210,-178,715
-38,79,-979,-22330,-2450,2170,-210,-174,709
-37,85,-975,-22610,-2310,840,-211,-168,712
-38,90,-978,-19600,-2380,70,-213,-175,709
-40,92,-981,-15680,-2940,-140,-220,-174,715
-38,91,-978,-11970,-2660,420,-222,-177,723
-37,88,-977,-9310,-1960,910,-210,-172,720
-38,88,-978,-8960,-2170,1190,-220,-172,712
-39,93,-979,-10430,-3150,490,-229,-171,718
-40,97,-981,-11480,-3150,-280,-217,-168,714
-41,102,-981,-11760,-2730,-770,-223,-162,714
-41,102,-978,-11830,-2450,-910,-225,-174,721
-40,105,-979,-12320,-1680,-420,-223,-171,723
-41,107,-977,-13300,-1750,-630,-225,-169,715
-40,108,-974,-13930,-1540,-490,-222,-168,714
-41,115,-976,-14910,-1960,-140,-223,-177,709
-40,115,-974,-15120,-2590,-350,-235,-178,720
-42,119,-978,-15190,-2800,-70,-232,-166,724
-43,122,-978,-16590,-3430,-140,-228,-169,724
-41,122,-974,-17360,-2870,280,-238,-174,724
-42,129,-974,-17920,-2380,560,-240,-177,717
-41,131,-970,-17780,-2730,-210,-241,-168,723
-43,134,-973,-14140,-3080,-280,-238,-171,729
-45,141,-976,-13580,-4130,-980,-237,-171,714
-46,143,-976,-14490,-4340,-700,-237,-175,718
-49,144,-973,-15890,-3430,700,-235,-169,727
-59,159,-970,-17290,-2660,1540,-247,-165,729
-41,153,-966,-19250,-2660,1890,-243,-165,720
-41,150,-968,-18060,-2520,3220,-243,-163,723
-43,152,-971,-14490,-3570,3290,-256,-174,721
-40,152,-973,-11480,-4270,2170,-235,-172,721
-44,157,-974,-9660,-3780,1190,-246,-178,723
-46,159,-971,-8190,-2800,350,-253,-165,717
-46,159,-970,-6510,-1330,280,-256,-175,729
-46,160,-971,-5880,-1120,140,-244,-165,729
-46,162,-970,-9450,-910,-140,-249,-166,721
-47,169,-967,-11760,-910,-420,-253,-175,720
-48,172,-966,-12320,-770,-910,-258,-166,724
-45,172,-966,-11550,-840,-560,-256,-166,721
-45,173,-966,-10360,-980,-70,-252,-160,718
-45,174,-966,-8750,-980,140,-253,-169,723
-47,175,-967,-7910,-1050,630,-247,-168,723
-46,176,-968,-8120,-1120,1120,-252,-163,730
-47,175,-967,-9100,-1190,1610,-258,-163,715
-46,177,-967,-10430,-1190,1540,-261,-171,732
-51,182,-965,-12040,-1120,840,-270,-160,714
-40,187,-965,-13020,-980,140,-259,-163,730
-44,189,-963,-12110,-840,-280,-267,-162,733
-45,191,-963,-8750,-840,-490,-261,-169,718
-46,192,-963,-6580,-840,-350,-255,-171,727
-46,190,-964,-5180,-980,-420,-264,-169,736
-45,188,-966,-4410,-840,-700,-258,-168,730
-45,186,-965,-5180,-840,-1120,-273,-183,718
-46,196,-962,-7840,-630,-1820,-267,-174,726
-48,204,-962,-9310,-210,-3570,-274,-166,726
-47,201,-962,-9800,-280,-3080,-253,-168,727
-48,199,-962,-9940,-770,-1050,-262,-175,724
-44,206,-960,-10430,-840,-280,-271,-168,729
-44,207,-959,-11550,-840,-70,-267,-163,732
-45,209,-961,-9520,-910,-70,-273,-163,714
-45,207,-962,-7490,-910,-280,-270,-171,718
-46,208,-962,-6720,-910,-350,-270,-166,724
-48,210,-961,-8400,-840,-490,-270,-180,715
-59,218,-959,-11410,-770,-560,-274,-163,726
-40,216,-958,-15120,-630,-560,-271,-169,720
-44,222,-956,-18690,-630,-140,-283,-169,720
-41,224,-955,-17920,-700,-70,-289,-168,727
-42,225,-955,-15330,-630,-350,-277,-174,721
-43,224,-957,-12320,-630,-560,-286,-171,738
-46,230,-957,-10010,-490,-1120,-280,-168,726
-47,240,-954,-12600,0,-2870,-288,-172,730
-51,240,-953,-15820,-280,-2030,-286,-174,729
-43,237,-955,-16800,-700,-350,-277,-168,730
-46,245,-951,-18760,-700,70,-282,-175,723
-42,248,-951,-21280,-700,280,-283,-174,730
-41,250,-950,-20090,-630,-70,-292,-178,729
-44,255,-949,-17850,-560,-70,-288,-177,736
-46,255,-950,-16240,-560,-280,-295,-169,724
-47,256,-949,-15260,-420,-560,-289,-166,730
-47,261,-949,-15820,-490,-490,-292,-169,729
-41,262,-946,-16590,-630,-140,-297,-178,736
-42,270,-944,-16870,-840,280,-301,-163,732
-39,270,-944,-15190,-840,280,-303,-171,727
-41,271,-945,-13230,-770,0,-303,-171,733
-44,275,-943,-13300,-770,-70,-297,-177,741
-44,278,-945,-15120,-630,70,-310,-163,727
-45,282,-944,-18480,-630,140,-307,-169,736
-45,289,-940,-23730,-560,210,-310,-166,729
-47,296,-936,-27790,-630,280,-310,-172,732
-45,299,-934,-28000,-560,210,-312,-165,735
-41,300,-936,-23870,-700,0,-309,-172,726
-41,300,-935,-19180,-700,-70,-322,-172,726
-41,306,-934,-17570,-770,-70,-324,-168,732
-42,310,-933,-16450,-840,140,-316,-174,726
-44,314,-931,-17080,-840,350,-319,-171,730
-46,319,-929,-17990,-910,420,-318,-166,723
-42,320,-927,-16310,-910,420,-315,-172,735
-42,321,-928,-12600,-1050,280,-330,-172,724
-41,322,-928,-8190,-1050,210,-325,-174,729
-42,323,-928,-5250,-1120,140,-324,-171,724
-42,323,-927,-4340,-1120,70,-322,-180,726
-43,324,-927,-3920,-1050,-70,-327,-177,729
-43,325,-927,-2870,-1050,-70,-325,-169,730
-42,322,-928,-840,-1050,-280,-328,-165,730
-43,324,-929,280,-1050,-420,-325,-165,735
-42,322,-931,-2520,-1400,-350,-324,-171,736
-42,326,-928,-5740,-1400,-350,-319,-171,735
-43,328,-928,-10290,-1400,-70,-316,-159,732
-43,330,-927,-13440,-1470,0,-330,-172,732
-46,333,-924,-13790,-1610,210,-327,-168,730
-44,335,-922,-12040,-1750,350,-327,-172,730
-43,336,-922,-8820,-1750,350,-331,-165,732
-43,337,-925,-5110,-1890,210,-331,-165,739
-43,336,-924,-3710,-1680,70,-321,-163,729
-42,337,-923,-4760,-1680,-70,-337,-165,732
-43,341,-922,-6930,-1540,-70,-325,-168,730
-42,341,-921,-9380,-1470,0,-339,-163,738
-44,342,-921,-9380,-1470,0,-331,-165,729
-44,345,-919,-9660,-1400,-210,-334,-174,730
-44,347,-918,-8540,-1470,-70,-331,-172,732
-43,348,-919,-7350,-1330,0,-327,-175,733
-44,350,-918,-5600,-1330,0,-336,-163,733
-44,349,-920,-5040,-1190,-70,-339,-172,723
-45,351,-918,-6930,-1050,-280,-339,-171,735
-45,353,-918,-8120,-910,-420,-342,-171,735
-44,354,-916,-8610,-840,-490,-345,-169,723
-41,356,-916,-8890,-770,-630,-337,-166,730
-43,356,-914,-7910,-770,-700,-339,-171,727
-43,357,-916,-6090,-700,-770,-339,-175,742
-43,356,-917,-2240,-490,-770,-352,-162,736
-43,357,-917,-490,-770,-630,-343,-171,733
-44,356,-917,-420,-840,-490,-337,-166,735
-43,357,-917,-700,-980,-420,-343,-162,721
-44,357,-917,-1470,-1050,-280,-333,-171,730
-42,359,-915,-3570,-1050,-280,-334,-168,721
-43,360,-914,-6370,-1050,-420,-334,-174,735
-42,361,-914,-7910,-980,-350,-343,-177,729
-42,363,-912,-6930,-1050,-420,-340,-169,738
-43,364,-914,-6230,-1050,-350,-333,-171,727
-43,365,-912,-7070,-910,-350,-342,-166,730
-41,381,-909,-7210,-840,-420,-352,-166,727
-42,367,-915,-10710,-560,-1260,-343,-177,736
-43,365,-916,-22400,560,-3220,-346,-172,729
-51,374,-908,-33110,560,-2870,-343,-160,729
-46,384,-904,-33530,-420,-1470,-348,-166,730
-41,391,-903,-26600,-1190,-560,-351,-166,727
-39,393,-901,-20020,-1890,-70,-358,-168,733
-41,398,-897,-19460,-1960,140,-352,-177,721
-41,401,-895,-21630,-1750,70,-352,-171,727
-40,404,-893,-21490,-1260,-70,-352,-162,732
-44,407,-892,-17710,-1190,-210,-355,-172,727
-40,406,-894,-13650,-910,-420,-360,-174,721
-41,407,-895,-3010,-630,-770,-364,-174,724
-40,407,-895,840,-700,-910,-363,-172,732
-39,407,-896,1400,-490,-980,-363,-175,726
-44,406,-897,1540,-490,-1120,-369,-169,720
-45,405,-898,490,-420,-1120,-366,-169,721
-44,405,-897,-2380,-560,-1050,-361,-178,724
-42,408,-897,-6300,-700,-840,-358,-160,724
-43,411,-893,-10430,-770,-700,-370,-169,721
-44,415,-892,-13580,-840,-630,-369,-180,733
-44,417,-891,-14630,-840,-560,-372,-157,726
-41,416,-891,-12180,-910,-490,-373,-171,724
-40,419,-889,-9380,-1190,-420,-364,-168,733
-40,421,-887,-9170,-1260,-420,-364,-166,724
-42,423,-887,-9590,-1050,-420,-367,-177,726
-43,425,-888,-8610,-980,-420,-375,-163,717
-41,425,-887,-7070,-910,-420,-366,-166,711
-42,427,-885,-6720,-980,-560,-375,-165,723
-42,428,-885,-8820,-770,-840,-379,-168,723
-41,437,-880,-11200,-490,-980,-376,-175,717
-42,436,-880,-11760,-210,-1120,-366,-175,727
-42,433,-882,-14910,700,-2310,-375,-171,718
-38,432,-882,-20790,1680,-3150,-387,-171,736
-40,439,-880,-21700,1610,-2800,-381,-168,727
-40,441,-881,-14840,980,-1960,-376,-171,733
-45,441,-879,-1540,-350,-1190,-378,-172,724
-43,443,-880,-3640,-560,-980,-375,-169,720
-41,446,-878,-7070,-490,-770,-381,-166,723
-42,447,-878,-9450,-560,-630,-382,-169,732
-43,452,-875,-13090,-350,-770,-387,-165,730
-42,457,-872,-16240,-420,-910,-388,-177,733
-50,454,-874,-19390,-70,-1400,-391,-174,720
-44,454,-865,-22750,140,-2100,-394,-160,726
-36,456,-872,-7560,-1120,-1540,-388,-172,730
-38,454,-876,15330,-2310,-420,-391,-168,717
-38,456,-874,11340,-1960,-140,-387,-175,723
-36,460,-866,-13720,-700,-350,-387,-162,723
-40,461,-867,-18340,-490,-560,-385,-178,730
-39,461,-872,-9380,-350,-840,-393,-175,736
-41,460,-872,-4900,-560,-770,-391,-163,726
-42,462,-870,-7490,-630,-700,-393,-172,715
-39,468,-867,-15050,-560,-630,-397,-178,720
-40,471,-862,-24150,-210,-630,-391,-180,726
-40,467,-863,-23870,-280,-980,-391,-174,718
-43,474,-860,-18410,0,-1330,-391,-174,723
-42,485,-857,-15890,980,-2380,-396,-175,717
-44,478,-861,-19880,1820,-2730,-400,-171,715
-44,488,-853,-26040,1960,-2380,-405,-171,714
-35,486,-855,-18620,2940,-4900,-406,-181,721
-29,500,-852,-11410,3220,-5810,-400,-180,712
-36,511,-843,-7560,3360,-6790,-403,-169,714
-41,512,-845,-8260,2590,-6090,-408,-178,721
-32,502,-851,-12740,1400,-3640,-411,-180,714
-33,519,-841,-22330,700,-1540,-411,-183,718
-42,531,-831,-37800,490,-350,-405,-178,720
-45,523,-850,-52850,-490,2380,-418,-174,724
-40,529,-848,-59710,-1540,5110,-435,-177,709
-39,526,-815,-47390,1820,5600,-415,-175,708
-36,534,-819,-35000,3430,5320,-430,-184,709
-37,539,-815,-31220,1470,3990,-433,-180,715
-34,549,-821,-27860,420,3010,-433,-178,721
-38,556,-821,-23030,-770,2100,-436,-172,718
-37,552,-819,-21840,0,2100,-432,-169,706
-31,550,-811,-21000,1540,2520,-439,-177,717
-32,553,-811,-21490,2450,1400,-441,-165,711
-28,560,-803,-24780,2310,-700,-450,-183,711
-29,571,-791,-25620,2730,-2870,-445,-190,712
-28,578,-796,-23590,1610,-3920,-444,-178,712
-31,584,-812,-20230,210,-4060,-447,-180,714
-34,593,-812,-18620,490,-3500,-439,-177,717
-35,592,-803,-17500,3220,-2170,-451,-180,708
-30,579,-791,-19110,6720,-770,-450,-186,703
-26,579,-774,-22540,8050,560,-453,-184,711
-19,581,-771,-20230,6440,-490,-456,-177,711
-20,585,-772,-18410,3080,-2590,-459,-183,709
-24,594,-780,-16660,-420,-4830,-463,-174,714
-30,605,-780,-14070,-2170,-6650,-457,-178,711
-33,609,-779,-12390,-2310,-8190,-456,-178,705
-28,608,-788,-12600,-1470,-8470,-457,-175,700
-26,609,-798,-13790,-770,-6930,-454,-174,717
-30,614,-792,-15050,-700,-4970,-456,-169,711
-22,618,-781,-13090,420,-3710,-468,-178,705
-18,628,-768,-13860,2520,-3010,-454,-187,703
-26,638,-792,-20580,3570,-1470,-457,-184,700
-27,637,-766,-34230,6720,4340,-471,-171,706
-29,632,-756,-35000,9450,7210,-465,-183,699
-25,626,-745,-35560,10710,8960,-472,-174,699
-20,622,-736,-32690,10780,8890,-472,-189,705
-18,628,-728,-27020,9240,7210,-478,-186,694
-16,635,-737,-22190,5950,4340,-483,-186,697
-17,643,-745,-20580,1680,1400,-478,-201,699
-18,652,-746,-19600,-630,-700,-484,-192,699
-14,659,-748,-17920,-910,-1470,-493,-187,702
-12,662,-750,-16380,-70,-1050,-480,-187,703
-13,672,-743,-17500,1260,-140,-484,-186,696
-10,671,-746,-24150,3710,2800,-483,-181,694
-8,673,-741,-27020,4830,4060,-481,-189,690
-10,673,-730,-29820,6300,4900,-496,-186,700
-8,680,-718,-33320,7630,5600,-498,-190,690
-9,673,-707,-36190,8540,6160,-502,-193,693
-5,674,-701,-35980,8750,6300,-504,-196,687
-7,679,-699,-32410,8120,5320,-495,-183,691
-4,681,-693,-28910,7070,3640,-495,-187,690
0,691,-707,-26810,5180,1960,-504,-198,685
-3,700,-711,-25480,3780,280,-513,-204,691
-2,706,-702,-25620,4620,-560,-507,-186,690
5,709,-689,-26040,6510,-420,-510,-190,687
9,711,-679,-27860,7070,840,-516,-202,675
5,713,-676,-28770,5670,560,-525,-195,687
8,717,-675,-31640,3850,-140,-519,-204,681
4,726,-669,-30870,2800,-840,-529,-193,678
3,733,-663,-28420,1890,-1190,-534,-195,675
5,739,-670,-25970,840,-980,-525,-190,682
4,746,-660,-24990,210,-210,-523,-201,676
6,746,-657,-25900,490,1050,-538,-201,672
7,744,-664,-30100,350,2660,-535,-184,669
12,745,-639,-34370,420,3850,-538,-204,666
12,734,-644,-36890,1330,3920,-538,-202,675
11,742,-628,-40880,350,3080,-544,-196,670
9,752,-630,-28350,-770,-1820,-544,-202,666
5,763,-634,-26040,-2660,-4270,-543,-204,670
5,773,-630,-24010,-3290,-5740,-550,-198,661
3,785,-623,-23520,-3010,-5880,-541,-202,666
5,786,-623,-27020,-2100,-4690,-549,-198,658
5,780,-617,-32200,-1050,-2380,-549,-202,664
7,774,-611,-35140,-70,-280,-546,-199,666
7,775,-604,-35840,0,280,-556,-195,666
7,775,-600,-33180,-70,-770,-552,-201,649
3,782,-600,-30800,-630,-2520,-561,-201,654
2,800,-591,-27930,-1190,-4200,-562,-198,654
1,807,-587,-22960,-1960,-5460,-571,-196,655
1,810,-578,-22190,-1540,-4900,-556,-202,661
3,809,-580,-23240,-1120,-4060,-561,-190,648
3,807,-581,-25830,-1190,-3010,-568,-199,646
5,810,-566,-27440,-700,-2310,-562,-198,642
4,810,-562,-28070,-70,-2100,-579,-199,646
2,813,-561,-30940,-770,-2100,-576,-196,643
-1,815,-567,-31430,-1400,-2450,-576,-195,651
-2,819,-556,-30800,-1750,-3080,-579,-196,646
-4,826,-547,-27860,-1120,-3710,-582,-184,645
-2,831,-543,-27160,-980,-4200,-582,-189,640
0,836,-534,-28280,-1330,-4480,-576,-201,642
0,840,-539,-30380,-2240,-3640,-580,-189,634
1,843,-538,-31850,-2170,-3010,-595,-196,628
2,851,-530,-33460,-980,-2310,-598,-192,633
-1,849,-524,-34930,910,-1470,-595,-190,622
-3,847,-512,-38290,2520,-420,-591,-202,628
-5,845,-500,-40040,3710,0,-600,-193,625
-7,849,-500,-39970,3570,-770,-598,-193,622
-4,857,-488,-37800,2310,-1960,-601,-198,628
-2,864,-487,-32760,1330,-3220,-598,-205,618
-2,869,-488,-30450,280,-3850,-603,-190,622
-1,873,-484,-29680,-70,-3640,-609,-181,622
-2,870,-478,-28980,560,-3080,-604,-198,610
-3,867,-470,-28700,1190,-2590,-607,-195,604
-4,873,-452,-28210,1190,-3010,-612,-196,609
-5,882,-455,-24150,-560,-5950,-612,-198,610
-5,892,-455,-23940,-2240,-6860,-613,-198,606
-6,901,-453,-24220,-2940,-6370,-616,-196,609
-9,902,-453,-25270,-2590,-4550,-615,-195,606
-10,896,-449,-27370,-1890,-2030,-625,-196,606
-10,891,-439,-28070,-980,140,-636,-196,597
-8,887,-433,-27790,-420,1330,-630,-196,597
-8,891,-426,-27510,-700,1190,-625,-183,600
-6,893,-420,-26600,-1400,140,-622,-198,594
-8,896,-417,-25690,-2380,-840,-622,-193,592
-7,904,-414,-25550,-3500,-1610,-631,-201,604
-10,907,-415,-24150,-3920,-2520,-625,-195,606
-12,911,-412,-25620,-3710,-2380,-631,-186,591
-13,909,-410,-25410,-2520,-2100,-636,-196,597
-11,906,-399,-25690,-1610,-1750,-639,-193,589
-13,907,-393,-25060,-840,-1960,-627,-198,586
-13,913,-388,-26110,-1050,-2660,-640,-192,589
-11,916,-382,-25830,-1190,-3500,-643,-192,577
-11,944,-404,-26180,-1960,-3850,-636,-207,583
-8,922,-374,-23380,-1330,-2590,-639,-196,580
-7,921,-375,-22680,560,280,-645,-190,582
-11,921,-371,-25760,840,630,-643,-190,586
-14,927,-362,-26530,910,560,-648,-193,580
-14,929,-356,-26950,980,490,-646,-189,573
-11,929,-352,-28000,1120,490,-649,-196,565
-9,933,-349,-29050,1190,560,-652,-193,567
-10,933,-348,-28420,1260,560,-649,-198,564
-9,938,-336,-27230,1190,560,-651,-196,570
-8,937,-333,-24780,1470,420,-652,-193,567
-8,937,-331,-24920,1260,490,-655,-196,568
-9,939,-326,-25970,910,840,-655,-189,567
-11,943,-321,-26250,630,1050,-652,-202,555
-10,944,-320,-26740,560,1120,-655,-193,558
-9,945,-318,-27020,910,840,-664,-195,559
-7,951,-300,-26110,1400,490,-654,-193,555
-7,952,-298,-23520,1750,70,-661,-198,558
-5,952,-291,-23590,1610,140,-660,-202,549
-5,951,-292,-24430,1680,280,-661,-196,556
-8,952,-289,-26460,1400,490,-664,-195,562
-8,953,-289,-26110,1050,630,-658,-201,558
-5,954,-287,-24710,980,630,-672,-190,544
-3,957,-276,-24570,1400,490,-678,-201,543
-5,956,-281,-25130,2450,140,-663,-192,532
-6,962,-264,-24710,3010,-70,-669,-196,540
-5,960,-269,-20090,3640,-630,-673,-202,535
-3,966,-243,-19810,3010,-420,-684,-190,532
-4,965,-247,-18270,4410,-840,-679,-187,538
-5,965,-253,-21630,2450,0,-681,-193,532
-4,966,-240,-22400,1610,350,-667,-195,534
-4,965,-244,-22260,1610,280,-679,-190,525
-5,968,-242,-21980,1050,560,-681,-202,525
-4,969,-237,-20440,700,630,-678,-195,526
-4,969,-234,-18690,770,280,-679,-195,520
-3,971,-231,-17920,1050,210,-681,-201,534
-1,972,-229,-18060,1050,280,-681,-187,519
-1,972,-225,-18550,700,350,-670,-208,522
-3,974,-222,-19880,0,560,-678,-202,532
-2,973,-215,-21210,-420,630,-682,-207,526
-1,974,-211,-19530,560,210,-679,-207,528
-2,975,-204,-19460,1050,140,-688,-190,526
-2,976,-201,-21140,770,350,-688,-204,519
0,976,-197,-23100,420,700,-685,-196,511
-1,979,-193,-24710,350,1050,-685,-210,511
-1,981,-189,-26250,350,1400,-696,-201,517
-1,981,-186,-27090,140,1470,-696,-196,513
0,981,-181,-26950,-70,1470,-685,-195,508
0,983,-180,-26810,-420,1540,-699,-201,511
0,984,-172,-27300,-700,1610,-693,-186,499
0,985,-160,-28560,-1050,1610,-690,-201,499
0,985,-154,-29540,-1050,1400,-694,-202,493
1,988,-149,-29120,-980,1330,-688,-195,501
1,990,-143,-28980,-770,1190,-693,-195,490
1,989,-140,-28000,-420,1120,-693,-196,499
2,989,-138,-26250,-140,1050,-700,-204,481
1,995,-133,-24920,-420,980,-696,-204,489
1,992,-127,-24010,-840,840,-699,-202,484
1,991,-126,-22260,-980,140,-693,-199,487
2,992,-122,-20580,-420,-420,-699,-198,505
2,992,-120,-20090,280,-700,-699,-202,474
2,992,-113,-20370,1120,-910,-714,-195,472
1,994,-105,-20510,2170,-1050,-705,-202,487
2,994,-101,-23730,910,-910,-705,-195,486
2,994,-98,-23730,1120,-910,-696,-202,475
2,995,-93,-23450,1120,-980,-712,-208,465
1,995,-89,-23030,1260,-980,-705,-198,463
3,994,-84,-21910,1680,-1050,-717,-199,463
3,996,-81,-21700,1540,-910,-712,-204,468
2,996,-76,-21770,1190,-770,-709,-202,474
2,997,-74,-20370,910,-770,-718,-207,466
2,997,-71,-19110,70,-420,-724,-210,457
2,997,-68,-17780,-490,-70,-709,-198,468
2,996,-67,-15960,-630,0,-705,-204,466
0,997,-64,-13580,-140,-140,-708,-196,463
2,998,-61,-11690,1260,-280,-715,-210,459
1,997,-58,-11130,2100,-280,-715,-198,463
2,997,-55,-11060,2380,-350,-709,-210,456
2,999,-54,-10500,2520,-560,-712,-202,460
1,998,-54,-10500,1470,-630,-717,-207,454
1,998,-52,-11200,420,-350,-715,-204,462
2,999,-50,-13020,-280,-70,-708,-201,459
1,999,-46,-16940,-1400,210,-720,-211,459
3,999,-41,-20650,-2170,280,-708,-202,445
3,1001,-36,-24430,-2660,490,-715,-213,438
2,1001,-27,-27230,-2870,490,-718,-199,451
4,1001,-20,-29890,-2310,630,-715,-201,450
5,1001,-13,-32690,-2380,1120,-712,-196,441
4,999,-6,-32620,-1680,1400,-729,-201,447
5,999,-2,-29190,-490,1260,-715,-199,436
5,999,1,-24150,770,700,-717,-202,435
5,999,3,-20020,1330,-140,-724,-205,441
4,1000,4,-16730,1540,-560,-723,-205,420
3,1001,6,-14840,1470,-560,-726,-195,433
3,1000,9,-14910,1190,-490,-721,-201,436
3,998,12,-15540,1330,-420,-726,-198,424
3,998,17,-15960,1470,-420,-717,-199,430
3,999,23,-13860,2170,-770,-718,-201,420
3,1000,22,-5390,2030,-1260,-732,-198,429
3,1000,19,840,1540,-1260,-730,-196,423
4,1001,14,6020,770,-1120,-724,-202,426
3,1000,13,6090,-700,-840,-726,-196,429
3,1000,13,1890,-2100,-770,-727,-201,426
3,1000,15,-1540,-2380,-910,-732,-202,433
3,1000,16,-4060,-2030,-1190,-726,-205,441
3,1000,19,-5320,-1470,-1190,-732,-205,418
3,1001,18,-5460,-980,-1120,-718,-205,438
3,1000,19,-5040,-910,-1120,-730,-201,424
2,1000,20,-4550,-840,-980,-729,-193,424
2,1000,20,-3500,-700,-910,-726,-202,429
2,999,21,-2240,-210,-770,-733,-202,429
2,999,22,-3430,-490,-700,-726,-192,430
3,1000,24,-4550,-980,-700,-730,-202,436
2,1000,24,-4340,-980,-700,-726,-199,426
3,999,25,-3010,-1050,-700,-729,-207,427
2,998,25,-840,-980,-700,-729,-204,433
2,1000,23,2310,-980,-700,-732,-202,423
3,999,21,5250,-910,-700,-726,-205,429
2,1000,18,6860,-840,-700,-724,-204,429
2,1000,17,6300,-770,-700,-724,-196,430
2,999,17,4410,-420,-700,-720,-193,424
2,999,18,2310,140,-630,-729,-204,426
2,999,19,-630,-70,-770,-730,-202,423
3,1001,18,-1050,-350,-840,-724,-196,436
3,1000,19,-840,-700,-910,-723,-202,430
3,1000,19,-630,-980,-910,-732,-204,427
4,999,19,0,-980,-910,-723,-193,430
3,1000,19,1120,-1050,-770,-726,-202,433
3,1000,18,2520,-1050,-770,-727,-205,427
2,1001,17,3920,-1330,-840,-720,-199,420
3,1000,15,4550,-1610,-910,-730,-202,433
3,1000,14,4130,-1820,-910,-724,-204,436
4,999,13,3360,-1820,-910,-721,-190,426
3,1000,13,2940,-1750,-910,-723,-201,429
3,1001,12,2240,-1400,-840,-723,-201,424
2,1000,11,1820,-1260,-840,-735,-201,433
3,1001,13,1330,-1120,-770,-720,-207,436
2,999,12,1050,-1120,-770,-717,-201,430
2,1000,12,1190,-1190,-770,-726,-214,436
2,999,11,1400,-1330,-700,-717,-193,429
2,1000,10,1540,-1470,-770,-723,-205,436
2,1000,10,1400,-1540,-770,-729,-202,435
4,999,10,1190,-1470,-840,-729,-198,427
4,1000,11,630,-1400,-840,-720,-201,429
3,1000,10,140,-1260,-840,-711,-192,432
2,1000,11,-140,-1120,-840,-723,-195,433
2,1001,11,-840,-980,-840,-712,-196,433
2,1000,12,-1050,-980,-770,-726,-198,438
2,1000,11,-1050,-980,-770,-711,-193,435
3,1000,11,-770,-980,-770,-726,-192,432
2,1000,11,-350,-910,-770,-723,-202,438
2,1000,10,-140,-980,-770,-723,-204,433
1,1000,10,0,-910,-700,-729,-199,424
3,1000,11,-350,-910,-770,-720,-204,430
4,999,11,-910,-910,-770,-721,-207,433
3,1000,11,-1680,-910,-700,-720,-199,427
2,1000,12,-2030,-770,-770,-718,-196,430
3,999,13,-2170,-630,-840,-726,-205,432
3,1000,13,-2170,-700,-770,-729,-204,439
3,999,13,-2030,-770,-770,-729,-204,432
3,999,14,-1750,-840,-770,-726,-196,436
3,999,13,-1400,-840,-770,-727,-198,432
2,998,14,-1330,-700,-700,-724,-208,429
3,999,14,-1400,-560,-700,-721,-198,436
4,1000,15,-1610,-490,-700,-727,-208,441
2,1000,15,-1610,-420,-770,-732,-193,439
3,1001,15,-1330,-560,-770,-724,-205,424
3,999,15,-1330,-630,-770,-718,-198,429
4,999,15,-1610,-630,-770,-727,-207,435
3,1000,17,-2660,-630,-700,-726,-202,426
3,1000,17,-2800,-560,-700,-732,-205,436
3,1000,17,-2520,-630,-700,-724,-196,432
4,999,17,-1960,-700,-770,-739,-195,436
3,999,17,-1540,-840,-770,-723,-202,436
3,999,18,-1470,-840,-770,-729,-198,436
3,1000,17,-1610,-840,-770,-729,-207,436
3,1000,17,-1960,-700,-840,-723,-201,430
3,1001,19,-2170,-700,-840,-724,-204,433
2,999,19,-2450,-770,-840,-730,-205,426
2,999,20,-2240,-910,-770,-729,-201,426
3,1000,19,-1050,-980,-770,-729,-201,429
3,1000,18,-490,-770,-700,-724,-204,427
2,1000,19,-630,-630,-630,-727,-204,424
3,1000,19,-1120,-490,-630,-729,-211,426
3,1000,20,-1680,-420,-630,-712,-207,435
4,1000,21,-1960,-490,-700,-724,-202,430
3,1000,21,-1540,-630,-770,-724,-198,433
4,1000,21,-1050,-770,-770,-720,-205,430
4,1000,21,-700,-840,-700,-726,-199,429
3,1000,21,-490,-910,-770,-730,-192,424
3,1000,20,-630,-910,-770,-718,-201,426
3,999,23,-1120,-910,-840,-721,-198,429
3,1000,22,-1050,-910,-910,-718,-205,433
3,1000,21,-490,-1120,-840,-723,-193,421
3,1001,21,630,-1260,-770,-724,-207,433
2,1000,19,1540,-1400,-700,-729,-204,427
3,1000,19,1470,-1400,-770,-718,-205,430
4,998,20,840,-1190,-700,-717,-210,429
3,999,19,560,-1050,-770,-721,-205,432
3,998,20,70,-910,-770,-726,-202,426
4,999,20,-420,-910,-910,-732,-202,432
3,1001,20,-630,-840,-980,-729,-199,429
3,1000,20,-840,-910,-910,-723,-205,424
3,1000,20,-1190,-980,-840,-721,-207,435
4,999,21,-1540,-980,-840,-727,-202,430
3,999,21,-2030,-560,-700,-727,-198,426
3,999,22,-2590,-350,-700,-730,-214,427
3,999,22,-3080,-210,-700,-727,-205,430
3,1000,24,-3430,-140,-770,-720,-205,435
2,1000,24,-3710,-280,-770,-726,-204,432
3,1000,25,-3570,-490,-770,-735,-201,433
3,999,26,-3360,-630,-700,-718,-196,427
3,1000,26,-2800,-630,-630,-720,-201,421
3,998,26,-2310,-700,-630,-730,-204,429
4,1000,27,-1820,-700,-700,-729,-196,421
4,999,27,-1190,-770,-700,-730,-199,435
4,998,25,490,-770,-770,-729,-211,429
3,1000,24,770,-770,-840,-721,-207,420
4,999,25,420,-770,-910,-733,-196,426
3,1000,26,140,-700,-980,-729,-207,421
2,1000,26,210,-700,-1050,-729,-201,421
3,1000,25,630,-770,-1050,-732,-192,424
2,1000,25,1050,-840,-980,-724,-187,433
2,1000,25,1890,-1050,-910,-724,-204,426
3,999,24,2730,-1260,-910,-726,-207,427
3,999,23,3360,-1400,-770,-727,-214,420
2,999,22,3640,-1400,-770,-727,-204,435
2,1001,21,3430,-1330,-840,-726,-205,430
3,1001,21,2030,-980,-980,-733,-210,432
3,999,21,1470,-910,-980,-727,-204,426
3,999,20,1260,-1050,-980,-723,-210,427
2,1000,21,1190,-1190,-1050,-736,-205,426
3,1000,20,1330,-1330,-980,-735,-204,436
2,1000,19,1820,-1330,-910,-727,-202,430
3,1000,18,1820,-1260,-910,-727,-192,430
3,1000,18,1330,-1120,-840,-724,-205,433
4,1000,20,910,-840,-770,-730,-207,421
2,999,19,700,-840,-840,-732,-190,432
4,1000,18,770,-910,-980,-724,-207,421
3,1001,18,910,-980,-980,-729,-196,418
3,1000,17,1190,-1190,-910,-732,-199,426
4,1000,17,1190,-1260,-910,-726,-198,423
3,1000,17,910,-1190,-840,-732,-202,429
4,1000,16,630,-1190,-840,-732,-202,430
3,1000,16,420,-1120,-840,-724,-195,424
4,1000,18,140,-980,-770,-720,-208,429
3,999,17,70,-910,-840,-727,-201,424
4,1001,17,210,-980,-840,-723,-199,424
2,1000,16,490,-980,-840,-729,-207,435
3,1000,16,560,-1120,-910,-727,-196,430
4,1000,17,350,-1120,-840,-718,-199,429
3,1000,17,0,-1050,-840,-724,-199,421
2,1000,17,-70,-980,-840,-721,-204,433
2,1001,16,140,-1050,-840,-720,-202,438
3,1001,16,490,-1120,-770,-715,-201,423
2,1000,15,700,-1050,-770,-723,-205,424
3,999,15,840,-1190,-840,-727,-199,438
3,1000,15,490,-980,-770,-720,-207,436
3,999,17,-210,-840,-840,-727,-201,430
3,1000,16,-770,-630,-840,-721,-211,441
4,1001,17,-700,-630,-910,-724,-199,433
2,1000,17,-70,-840,-910,-721,-198,432
4,1000,15,490,-980,-840,-723,-201,430
3,999,15,630,-1120,-840,-721,-196,426
3,1000,15,70,-1050,-770,-724,-202,438
3,1000,16,-280,-980,-770,-721,-196,433
4,1000,16,-630,-910,-770,-721,-204,433
3,1001,16,-980,-910,-770,-712,-199,435
3,1000,16,-840,-840,-840,-724,-201,436
3,999,16,-350,-910,-770,-723,-201,438
2,1000,16,140,-980,-770,-720,-204,436
2,1001,15,350,-910,-770,-723,-204,433
4,1000,15,210,-910,-770,-732,-205,432
3,1000,15,0,-910,-770,-718,-208,432
3,1000,15,70,-980,-840,-720,-207,436
3,1000,14,-70,-980,-840,-727,-196,417
3,1000,15,-560,-980,-770,-720,-208,445
3,1000,16,-1260,-770,-770,-723,-210,430
3,1000,15,-1750,-630,-840,-727,-204,442
3,1000,17,-1960,-490,-840,-724,-202,432
3,1000,18,-2100,-420,-840,-729,-207,427
3,1001,18,-1820,-420,-840,-729,-198,420
3,1000,17,-1190,-630,-770,-721,-204,426
4,1000,17,-280,-840,-840,-724,-211,427
3,1000,17,490,-980,-770,-712,-201,427
4,1001,15,770,-1050,-770,-730,-198,433
4,1000,15,490,-1050,-770,-727,-192,436
2,1000,16,210,-910,-770,-735,-205,423
2,999,16,-70,-910,-840,-724,-208,433
2,1000,16,-350,-980,-840,-720,-205,424
3,999,16,-490,-980,-840,-724,-205,435
3,1000,17,-630,-910,-840,-732,-195,441
3,1000,17,-770,-910,-910,-723,-207,432
3,1000,16,-910,-910,-910,-720,-195,427
4,1000,17,-1120,-910,-840,-727,-205,427
3,1000,17,-1120,-840,-770,-721,-207,429
3,1000,17,-840,-910,-840,-721,-198,433
3,1000,16,-420,-910,-770,-717,-201,429
3,1001,17,140,-980,-770,-721,-201,424
3,1000,16,70,-980,-770,-729,-205,435
2,1000,17,-70,-1050,-840,-723,-204,432
3,999,18,-420,-980,-840,-721,-205,430
3,1000,18,-770,-980,-770,-732,-192,429
3,1001,17,-700,-910,-770,-714,-202,433
3,1000,18,-140,-910,-840,-715,-199,433
4,1000,16,490,-910,-840,-730,-201,430
4,1000,16,560,-910,-840,-718,-204,430
4,1000,16,-280,-980,-770,-721,-199,433
3,1000,18,-1050,-910,-770,-727,-208,427
3,999,18,-1680,-630,-770,-718,-201,436
2,1000,19,-1400,-630,-770,-721,-195,432
3,999,18,-910,-770,-840,-733,-201,432
3,999,18,-280,-910,-840,-726,-208,441
4,1000,18,280,-980,-770,-721,-195,430
3,1001,16,350,-980,-700,-727,-204,438
3,1000,17,70,-980,-630,-730,-202,423
3,999,17,-770,-770,-490,-732,-210,426
4,1000,18,-1750,-420,-490,-729,-201,438
3,1000,18,-2380,-280,-630,-729,-204,433
3,999,19,-2730,-280,-700,-718,-207,426
3,999,20,-2870,-280,-630,-720,-205,429
3,1000,20,-2380,-350,-770,-727,-201,438
3,999,21,-2240,-420,-770,-729,-202,433
3,999,21,-2170,-490,-700,-720,-202,423
3,999,22,-2030,-560,-700,-721,-205,430
3,999,22,-1890,-700,-700,-727,-208,432
4,999,22,-1470,-700,-700,-729,-196,427
3,999,22,-910,-770,-770,-723,-205,430
3,1001,22,-700,-840,-770,-727,-195,430
3,999,22,-560,-840,-840,-733,-196,433
4,998,21,-840,-840,-770,-721,-202,427
3,1000,21,-1260,-700,-840,-732,-199,436
3,1000,23,-1820,-630,-840,-724,-208,426
3,1001,25,-2450,-630,-770,-732,-205,430
4,999,24,-2590,-560,-630,-721,-201,424
4,1000,23,-2310,-700,-560,-724,-202,436
3,1000,24,-2240,-630,-560,-717,-205,424
4,999,25,-2590,-490,-490,-724,-202,426
4,999,25,-3010,-210,-420,-729,-208,417
3,999,27,-3080,-70,-490,-720,-196,436
3,999,26,-2660,-140,-560,-724,-205,420
4,999,28,-1820,-420,-560,-730,-202,421
6,998,27,-980,-700,-630,-714,-213,429
3,999,27,0,-910,-700,-729,-198,427
4,999,25,770,-1050,-700,-732,-199,418
4,998,25,1610,-1120,-840,-724,-207,430
3,998,24,1610,-1120,-910,-720,-207,426
3,999,25,1190,-1120,-910,-721,-198,435
3,999,25,630,-1120,-980,-724,-210,423
4,999,24,280,-1190,-1050,-724,-195,433
4,1000,25,280,-1190,-1050,-723,-207,430
4,1000,24,350,-1190,-1120,-736,-205,432
4,1000,24,700,-1190,-1050,-720,-204,433
5,1001,23,910,-1120,-910,-730,-204,430
4,1000,24,1050,-1120,-910,-721,-202,430
4,999,24,1050,-980,-840,-727,-202,429
4,1000,23,1050,-910,-840,-721,-205,430
3,999,22,840,-770,-770,-720,-205,421
4,999,24,420,-770,-840,-712,-208,426
4,999,24,140,-910,-840,-732,-210,426
4,999,23,210,-910,-840,-732,-196,421
4,1000,23,560,-980,-840,-729,-204,429
3,999,23,1050,-1050,-910,-723,-211,427
3,1000,22,1960,-1260,-980,-724,-201,417
3,999,21,2520,-1470,-980,-724,-204,429
4,1000,21,2660,-1610,-980,-723,-199,432
4,1001,21,2520,-1470,-1050,-726,-207,442
4,1000,19,2380,-1470,-980,-727,-208,424
3,999,20,2240,-1400,-1050,-714,-208,433
3,1000,18,2310,-1470,-1120,-727,-217,430
4,1000,18,2590,-1540,-1190,-726,-205,438
4,1000,18,3080,-1610,-1260,-730,-198,435
3,1001,17,3780,-1750,-1260,-723,-205,432
3,1000,16,3990,-1960,-1190,-723,-201,426
4,1000,14,3710,-2100,-1260,-720,-201,438
3,1001,14,3360,-1960,-1260,-721,-210,429
4,1000,13,3710,-1610,-1190,-718,-205,436
3,1000,14,3290,-1400,-1050,-723,-196,429
4,1000,14,3500,-1260,-1120,-723,-205,435
2,1001,10,3920,-1190,-1120,-720,-195,432
2,1000,9,5250,-1330,-1120,-714,-202,430
4,999,8,5670,-1330,-1120,-718,-205,435
4,999,7,6090,-1190,-1120,-721,-198,433
3,1000,5,6720,-910,-1120,-715,-205,444
3,1001,5,6230,-910,-1190,-726,-202,436
3,1001,5,5390,-840,-1120,-720,-204,435
3,1001,3,5040,-840,-1190,-720,-207,444
2,1000,3,5180,-910,-1190,-723,-205,444
3,1000,2,5670,-910,-1190,-717,-195,435
3,1000,0,6860,-1050,-1260,-723,-208,432
2,1001,-2,8540,-1120,-1330,-723,-192,436
2,1000,-6,9520,-1260,-1330,-723,-195,433
2,1000,-8,10570,-1330,-1400,-720,-192,436
2,1001,-9,10500,-1120,-1400,-717,-204,444
3,1000,-10,9660,-1050,-1400,-721,-199,444
2,1000,-12,9310,-1050,-1400,-706,-196,441
2,1000,-14,9170,-1050,-1540,-718,-202,439
1,1000,-15,8890,-1050,-1540,-727,-205,444
3,1001,-17,8960,-1120,-1470,-706,-195,448
2,1001,-18,9450,-1050,-1540,-715,-202,451
2,1000,-21,10010,-1120,-1540,-718,-205,445
2,1000,-23,10780,-1190,-1540,-714,-193,448
3,1000,-27,11270,-1260,-1540,-720,-190,444
2,1000,-28,11900,-1190,-1470,-715,-189,444
2,1000,-31,12810,-1190,-1610,-720,-202,451
2,999,-34,14140,-1190,-1750,-717,-202,448
2,999,-38,15960,-1190,-1750,-709,-202,445
0,1000,-42,17570,-1400,-1750,-721,-199,450
0,1000,-46,18690,-1750,-1680,-718,-196,445
1,999,-50,19810,-2030,-1680,-715,-202,457
1,998,-51,20580,-2310,-1750,-712,-199,451
1,998,-57,20440,-2380,-1890,-715,-201,457
1,998,-58,19880,-2170,-1610,-706,-202,466
0,999,-62,18900,-2030,-1400,-712,-196,457
1,998,-68,18760,-1750,-1330,-718,-192,457
1,997,-72,20860,-1610,-1260,-709,-198,460
1,998,-76,22470,-1610,-1190,-711,-199,469
0,997,-81,24080,-1400,-1050,-706,-199,471
0,997,-85,25690,-1260,-1050,-706,-201,477
0,998,-92,27440,-1120,-1120,-708,-195,468
0,996,-97,29400,-980,-1470,-705,-202,474
0,996,-104,30520,-840,-1890,-696,-193,483
0,996,-109,31990,-770,-2240,-702,-205,471
0,994,-115,32130,-840,-2450,-694,-202,486
1,992,-121,32270,-770,-2660,-696,-204,487
1,990,-125,32130,-770,-2730,-688,-205,490
0,991,-131,32130,-770,-2730,-687,-202,484
-1,989,-145,33110,-630,-2730,-694,-195,496
-1,988,-151,35280,-630,-2940,-693,-202,496
0,986,-157,35560,-700,-3010,-691,-196,502
0,984,-162,35560,-630,-2940,-693,-204,493
-2,984,-172,35630,-560,-2870,-693,-205,496
-1,984,-176,36260,-560,-2870,-685,-198,501
-2,983,-182,35560,-700,-2870,-685,-202,507
-2,981,-189,35420,-700,-3150,-687,-193,517
-2,980,-194,35980,-630,-3290,-679,-192,520
-2,978,-200,36330,-700,-3290,-693,-198,513
-2,975,-208,35980,-770,-3290,-666,-199,517
-2,973,-221,36470,-630,-3290,-675,-201,523
-4,973,-226,36330,-700,-3150,-679,-207,522
-3,971,-231,36540,-700,-3220,-681,-198,522
-4,970,-239,37800,-700,-3360,-669,-201,525
-6,967,-247,39200,-700,-3500,-672,-201,529
-5,964,-254,38850,-700,-3430,-673,-199,534
-5,964,-260,39200,-560,-3570,-669,-204,531
-5,961,-266,40040,-630,-3640,-663,-198,546
-6,958,-275,40670,-630,-3710,-664,-187,535
-6,957,-280,41440,-560,-3920,-666,-196,541
-6,953,-288,40950,-560,-3850,-658,-190,535
-7,953,-294,41020,-490,-3920,-658,-195,550
-9,948,-308,41860,-490,-3920,-669,-198,546
-9,946,-317,46830,-560,-4270,-661,-195,547
-9,941,-328,49210,-490,-4480,-654,-198,552
-10,938,-335,52150,-560,-4900,-645,-192,576
-10,935,-346,53270,-560,-5040,-654,-196,571
-10,930,-355,54460,-560,-5180,-645,-186,571
-10,928,-364,54810,-700,-5250,-643,-196,580
-12,923,-372,54460,-700,-5250,-643,-195,574
-12,920,-382,53970,-770,-5320,-637,-201,591
-12,917,-390,54040,-630,-5250,-630,-187,582
-14,913,-397,53270,-560,-5110,-630,-186,579
-13,909,-406,53480,-490,-4970,-625,-186,580
-14,899,-426,55930,-350,-4900,-627,-196,600
-15,893,-437,58870,-210,-4830,-621,-202,600
-15,889,-444,58590,-210,-4830,-627,-196,600
-15,884,-454,57890,-210,-4760,-616,-190,600
-15,878,-464,58380,-140,-4900,-610,-183,606
-17,873,-472,57400,-140,-4830,-603,-187,601
-17,869,-481,56210,-140,-4690,-607,-190,618
-17,863,-490,55650,-140,-4690,-591,-196,619
-18,858,-498,55090,-210,-4620,-594,-192,625
-17,853,-506,53620,-210,-4410,-592,-196,624
-18,849,-513,51380,-280,-4270,-588,-193,627
-18,840,-528,49700,-350,-4200,-585,-201,631
-20,835,-536,47390,-490,-4060,-580,-187,624
-19,832,-542,46060,-490,-3920,-577,-190,630
-20,828,-547,44100,-490,-3850,-568,-190,642
-20,824,-552,42840,-490,-3780,-562,-196,651
-20,821,-558,43330,-490,-3780,-570,-193,640
-21,815,-567,45360,-420,-3920,-568,-187,642
-22,809,-575,48510,-420,-4200,-564,-193,654
-22,802,-582,49700,-420,-4270,-558,-186,658
-22,797,-589,48930,-420,-4270,-570,-190,645
-21,792,-595,47040,-420,-4130,-559,-198,646
-23,789,-599,45080,-490,-3990,-559,-195,649
-23,778,-612,44450,-560,-3990,-546,-183,660
-23,772,-621,50260,-490,-4340,-540,-189,669
-25,765,-630,52640,-490,-4480,-547,-198,661
-25,757,-638,52920,-490,-4480,-538,-186,660
-24,752,-644,50820,-630,-4270,-531,-186,673
-24,748,-648,45920,-770,-3850,-537,-190,670
-25,745,-652,42140,-840,-3570,-538,-169,679
-25,742,-656,41230,-910,-3570,-525,-184,678
-25,735,-663,43260,-840,-3640,-522,-187,685
-27,729,-670,46130,-910,-3780,-529,-178,681
-26,719,-677,47670,-1050,-3710,-519,-187,684
-26,710,-689,47180,-1330,-3430,-516,-189,678
-26,704,-693,41300,-1680,-2870,-516,-183,676
-27,701,-697,38570,-1750,-2730,-507,-187,682
-27,696,-701,39480,-1260,-3080,-507,-183,694
-27,691,-706,42350,-980,-3500,-501,-183,688
-28,685,-712,46200,-770,-4060,-496,-192,691
-29,675,-722,51240,-700,-4480,-496,-183,688
-29,667,-728,53830,-770,-4690,-493,-193,681
-29,660,-734,52990,-700,-4690,-489,-192,699
-30,654,-740,51310,-700,-4550,-486,-190,688
-30,647,-745,50680,-700,-4480,-474,-187,700
-31,642,-750,50750,-700,-4550,-480,-186,688
-31,626,-762,52010,-700,-4690,-465,-184,699
-33,615,-771,58590,-770,-5180,-462,-186,694
-31,606,-777,60690,-840,-5320,-466,-196,700
-32,600,-784,60340,-910,-5250,-453,-178,693
-32,591,-789,59290,-910,-5110,-450,-189,705
-33,582,-795,59360,-1120,-4760,-439,-192,702
-33,575,-801,59640,-1260,-4620,-441,-181,708
-34,566,-806,61040,-1260,-4690,-444,-193,714
-34,556,-812,64400,-1260,-5040,-430,-186,708
-34,548,-817,69650,-1120,-5670,-424,-202,712
-34,529,-829,77840,-840,-6650,-423,-180,717
-35,517,-837,87990,-700,-7560,-408,-192,715
-37,500,-847,92260,-770,-7910,-402,-192,732
-38,468,-864,96460,-840,-8190,-397,-192,721
-38,451,-874,99960,-1050,-8260,-390,-189,714
-39,434,-881,101780,-1260,-8540,-384,-186,718
-38,417,-890,101500,-1330,-8540,-378,-181,721
-40,402,-896,100170,-1400,-8260,-363,-190,723
-40,387,-903,97090,-1680,-7770,-358,-187,723
-41,371,-910,94780,-1750,-7280,-346,-183,732
-42,357,-915,92400,-1820,-6580,-339,-186,730
-42,342,-920,89530,-1960,-5880,-328,-186,727
-43,321,-930,88830,-2030,-5460,-331,-181,741
-43,301,-937,87010,-2100,-5040,-324,-183,739
-43,283,-943,78190,-1680,-4900,-310,-189,723
-44,281,-946,48440,-1190,-3710,-313,-190,726
-43,278,-942,35560,-980,-2730,-303,-177,727
-43,276,-942,27860,-140,-2240,-309,-181,730
-44,275,-945,20860,-560,-1330,-306,-181,726
-44,273,-947,15470,-1680,-280,-300,-196,735
-43,269,-945,15120,-700,-490,-303,-184,730
-43,269,-943,15820,770,-1050,-297,-183,723
-43,267,-945,17290,1050,-1680,-306,-183,726
-42,262,-947,22190,1610,-2450,-297,-189,726
-42,251,-948,29890,2380,-3290,-289,-189,726
-43,250,-953,37590,3710,-4410,-289,-190,727
-38,228,-957,43260,5390,-6020,-288,-190,727
-37,222,-960,60760,10710,-8680,-288,-189,727
-35,209,-966,65380,11690,-8190,-280,-186,727
-32,194,-968,74900,14770,-8190,-282,-195,726
-29,175,-973,86450,19600,-8960,-259,-196,729
-22,158,-974,97160,24150,-9590,-246,-187,730
-17,132,-962,107590,28560,-10290,-244,-208,733
-11,94,-967,122990,30450,-11200,-243,-195,721
-11,83,-983,117180,22890,-9450,-229,-193,720
0,45,-968,112560,21140,-10570,-220,-198,717
-3,45,-961,116690,22260,-11690,-217,-208,720
0,42,-944,116130,12530,-12320,-207,-192,705
-7,-2,-991,123550,4480,-13020,-186,-201,715
-8,-3,-981,24010,-8610,-3990,-190,-201,708
-9,-2,-990,13790,-9100,-3500,-196,-204,708
-12,-2,-990,7980,-9730,-1750,-195,-202,706
-10,-5,-986,4130,-6860,-700,-184,-204,712
-11,-4,-985,2030,-3990,-210,-190,-204,711
-11,-5,-983,1540,-2730,-350,-189,-196,723
-12,-5,-982,2310,-2450,-770,-195,-207,715
-13,-6,-984,3080,-2870,-1120,-183,-204,711
-12,-7,-983,3850,-3290,-1470,-187,-202,706
-12,-8,-984,4130,-3570,-1820,-190,-201,714
-14,-7,-985,3990,-3570,-1680,-177,-198,715
-14,-8,-984,2660,-2870,-1120,-184,-193,703
-14,-8,-984,2520,-2380,-840,-178,-199,703
-14,-9,-982,2380,-2170,-490,-180,-199,711
-15,-11,-983,2030,-2450,-210,-177,-198,709
-15,-10,-984,2030,-3010,-350,-184,-205,712
-14,-11,-982,1960,-3290,-560,-184,-202,717
-15,-10,-980,1890,-3430,-420,-190,-196,706
-16,-11,-980,910,-4130,70,-186,-199,708
-17,-9,-980,-70,-5600,420,-184,-213,712
-18,-12,-977,-840,-7140,630,-190,-204,717
-22,-7,-985,-700,-9380,770,-171,-196,709
-25,-10,-990,-700,-12320,630,-184,-196,717
-27,-14,-986,1470,-9660,1050,-181,-198,706
-27,-14,-984,2030,-6650,770,-183,-199,699
-27,-12,-984,1680,-4830,-350,-189,-189,714
-28,-11,-982,1120,-4270,-1190,-189,-195,714
-27,-11,-982,770,-4200,-1190,-187,-199,714
-28,-11,-983,210,-4620,-980,-186,-202,715
-29,-10,-985,-490,-5250,-560,-193,-195,703
-29,-7,-983,-980,-5390,-420,-187,-199,712
-31,-11,-984,70,-5040,0,-186,-195,705
-32,-13,-983,1960,-5460,1050,-183,-196,717
-33,-14,-985,2450,-5460,1330,-180,-196,714
-34,-13,-984,2450,-4620,700,-178,-193,712
-35,-19,-981,2730,-4130,350,-178,-198,712
-34,-13,-979,2590,-4410,0,-187,-180,705
-35,-15,-980,490,-4760,-420,-177,-199,715
-36,-11,-983,700,-6650,-210,-187,-184,705
-37,0,-982,-140,-7700,140,-177,-183,712
-40,-22,-979,1750,-8470,1330,-190,-186,711
-39,-2,-982,6650,-11760,4340,-172,-189,711
-48,-41,-994,9170,-13020,4480,-177,-186,706
-45,-23,-993,10570,-12950,5460,-175,-184,703
-44,-19,-985,3430,-4970,770,-177,-186,702
-44,-21,-980,1540,-630,-420,-174,-193,714
-44,-23,-983,1260,140,-350,-169,-187,705
-44,-20,-982,1190,-630,-560,-166,-189,711
-44,-22,-984,420,-770,-630,-166,-187,711
-43,-22,-982,280,-770,-560,-178,-187,711
-44,-20,-983,-70,-420,-560,-171,-183,705
-44,-21,-983,0,-560,-560,-175,-189,708
-44,-20,-982,140,-840,-560,-175,-189,708
-45,-20,-984,210,-910,-560,-163,-186,697
-45,-21,-984,280,-630,-420,-190,-178,703
-43,-23,-985,490,-210,-140,-177,-181,696
-44,-21,-987,140,560,70,-174,-186,703
-43,-20,-992,-560,840,-490,-166,-180,705
-41,-16,-993,-700,3430,-140,-181,-195,700
-38,-21,-986,-2100,8190,70,-174,-186,706
-36,-30,-978,-3290,12250,1680,-175,-189,706
-33,-16,-983,-4410,12600,1470,-177,-189,705
-30,-19,-966,-4760,10990,-770,-180,-187,703
-30,-18,-975,-3220,9660,140,-175,-189,697
-31,-20,-986,-2240,1890,-210,-183,-186,706
-30,-18,-982,-1610,-1190,-630,-181,-186,705
-30,-17,-984,-1680,-630,-700,-172,-183,703
-30,-16,-982,-1120,-1190,-630,-175,-190,711
-30,-18,-984,-1400,-980,-630,-183,-193,709
-30,-18,-983,-1260,-1190,-700,-175,-196,715
-31,-17,-984,-1260,-1050,-700,-184,-193,709
-30,-17,-983,-1120,-910,-700,-181,-195,703
-30,-18,-982,-1050,-1050,-700,-178,-193,702
-31,-17,-984,-1190,-980,-560,-175,-195,706
-31,-16,-983,-2100,-1190,-560,-183,-196,721
-32,-15,-985,-1890,-1050,-560,-183,-198,708
-30,-15,-984,-1680,-1120,-630,-174,-190,711
-31,-16,-984,-1330,-840,-560,-178,-193,706
-30,-15,-983,-910,-980,-700,-183,-180,717
-30,-15,-984,-490,-770,-630,-183,-196,706
-30,-16,-982,-70,-840,-770,-172,-190,705
-31,-16,-983,210,-840,-770,-180,-199,705
-31,-15,-984,-630,-980,-700,-177,-204,712
-31,-15,-984,-1400,-1190,-630,-178,-199,706
-31,-14,-984,-1680,-1120,-560,-178,-195,709
-30,-15,-984,-1820,-1120,-560,-187,-195,706
-31,-14,-984,-1750,-980,-560,-174,-193,715
-31,-15,-984,-1890,-840,-560,-183,-198,711
-30,-13,-984,-2100,-840,-420,-183,-195,709
-31,-13,-985,-2170,-700,-350,-186,-199,714
-31,-11,-984,-2170,-560,-280,-177,-195,714
-29,-13,-983,-1820,-140,-350,-175,-186,705
-29,-12,-983,-1050,280,-350,-183,-192,712
-30,-11,-983,-910,0,-420,-174,-189,699
-29,-12,-984,-1050,-490,-490,-183,-199,706
-29,-11,-984,-840,-770,-630,-183,-187,706
-30,-12,-984,-980,-770,-560,-181,-189,703
-31,-11,-984,-700,-840,-560,-187,-189,714
-29,-11,-983,-700,-700,-560,-180,-192,717
-30,-12,-984,-560,-560,-560,-181,-184,705
-29,-12,-983,-700,-490,-490,-192,-193,711
-30,-11,-984,-980,-280,-490,-193,-193,711
-30,-12,-985,-1330,-210,-350,-175,-190,712
-29,-11,-984,-1400,-280,-350,-180,-187,705
-29,-11,-984,-1260,-420,-490,-190,-199,706
-28,-11,-984,0,-700,-630,-183,-192,709
-30,-11,-985,280,-770,-770,-186,-196,712
-29,-11,-984,350,-770,-770,-178,-186,700
-29,-11,-984,210,-770,-770,-183,-186,708
-29,-11,-984,-490,-840,-630,-184,-190,714
-28,-12,-983,-490,-910,-700,-186,-205,714
-29,-11,-983,-350,-910,-770,-186,-189,708
-29,-11,-983,-350,-1050,-700,-177,-187,712
-29,-11,-985,-140,-1050,-770,-180,-187,712
-29,-12,-984,-140,-1050,-840,-178,-192,709
-29,-12,-985,0,-910,-770,-183,-190,724
-29,-11,-984,-280,-910,-700,-181,-190,708
-29,-12,-984,-420,-910,-700,-186,-192,720
-28,-11,-984,-560,-910,-630,-181,-195,714
-29,-11,-984,-420,-980,-700,-180,-187,702
-28,-11,-985,-70,-980,-770,-196,-187,718
-29,-11,-984,210,-1120,-770,-184,-189,706
-28,-12,-984,-70,-910,-770,-171,-189,714
-28,-10,-983,-280,-980,-700,-174,-192,714
-29,-11,-984,-700,-840,-700,-181,-186,714
-28,-10,-984,-980,-1050,-630,-187,-193,715
-28,-10,-983,-840,-980,-700,-178,-193,714
-29,-9,-984,-560,-980,-700,-184,-190,714
-28,-10,-984,-420,-1050,-700,-183,-186,714
-29,-11,-984,-210,-910,-700,-178,-199,715
-29,-11,-984,-210,-980,-770,-181,-190,721
-30,-10,-980,-420,-840,-700,-183,-192,712
-29,-11,-988,-490,-980,-700,-178,-195,714
-28,-11,-981,-770,-1400,-630,-181,-183,714
-29,-10,-986,-1540,-700,-630,-181,-196,702
-29,-10,-984,-1680,-1470,-560,-183,-198,705
-28,-9,-983,-2170,-1120,-560,-190,-193,711
-29,-8,-986,-2100,-1120,-560,-184,-186,709
-30,-8,-983,-1820,-1260,-560,-186,-184,709
-30,-7,-983,-1470,-980,-560,-177,-184,700
-29,-9,-984,-280,-910,-700,-175,-181,706
-29,-9,-984,630,-1050,-770,-193,-193,711
-29,-6,-988,1120,-840,-910,-180,-186,708
-30,-3,-991,2100,-980,-910,-186,-196,708
-29,1,-1000,6580,-910,-1190,-187,-195,706
-26,-17,-981,19600,1330,-2240,-168,-195,708
-26,-62,-964,34650,3500,-2870,-177,-192,705
-26,-23,-963,20790,-1470,-1610,-171,-184,711
-28,-20,-1000,-4340,1400,-840,-175,-198,718
-28,-22,-980,-7840,-3500,-140,-174,-202,705
-28,-9,-987,-12110,-840,70,-174,-196,712
-29,-18,-994,-8330,-1330,-350,-183,-189,706
-28,-20,-987,490,-1540,-700,-177,-193,700
-28,-19,-982,1190,-980,-840,-178,-190,712
-28,-18,-985,-1050,-840,-700,-174,-187,717
-28,-18,-986,-630,-1190,-700,-181,-190,711
-29,-19,-985,700,-770,-840,-178,-196,718
-27,-20,-982,2520,-910,-980,-178,-195,718
-28,-22,-984,2940,-700,-1050,-178,-190,714
-29,-22,-981,2380,-980,-980,-184,-192,717
-28,-21,-983,-560,-1120,-770,-168,-192,708
-28,-19,-985,-2030,-1190,-630,-175,-190,714
-28,-20,-980,-2450,-1330,-560,-180,-195,711
-28,-18,-988,-3010,-1260,-490,-174,-187,714
-29,-17,-984,-4620,-1610,-350,-184,-201,715
-28,-16,-985,-2310,-1540,-630,-172,-196,706
-28,-17,-983,-1960,-1330,-700,-178,-196,708
-28,-16,-985,-1050,-1190,-700,-178,-189,705
-27,-18,-983,-770,-1260,-630,-177,-193,703
-28,-17,-983,-490,-1050,-700,-172,-186,700
-29,-16,-984,-980,-1260,-700,-184,-189,715
-30,-17,-984,-2030,-1330,-560,-174,-181,715
-28,-16,-984,-2590,-1260,-490,-178,-195,700
-29,-14,-984,-2730,-1260,-490,-165,-193,709
-29,-14,-984,-2590,-1260,-560,-183,-196,709
-29,-14,-983,-1890,-1190,-560,-181,-189,705
-29,-15,-984,-140,-980,-700,-183,-202,705
-29,-15,-984,210,-980,-700,-186,-184,705
-29,-14,-985,140,-910,-770,-171,-193,712
-29,-15,-983,-350,-980,-700,-175,-193,708
-29,-14,-984,-210,-840,-630,-174,-198,706
-28,-15,-983,0,-980,-700,-177,-190,718
-29,-14,-985,490,-770,-770,-175,-192,715
-29,-15,-983,630,-910,-840,-177,-195,708
-29,-16,-984,910,-840,-840,-178,-189,712
-29,-16,-982,1120,-980,-840,-181,-198,696
-29,-15,-984,630,-840,-840,-177,-184,714
-28,-15,-985,210,-1120,-770,-175,-181,711
-29,-16,-984,420,-1050,-840,-190,-193,708
-28,-16,-984,770,-910,-840,-186,-189,712
-28,-17,-984,980,-840,-910,-180,-198,711
-29,-17,-984,1050,-840,-770,-181,-202,708
-29,-17,-983,910,-910,-770,-183,-190,711
-28,-17,-984,700,-910,-770,-172,-186,711
-27,-17,-985,420,-980,-770,-172,-193,708
-28,-17,-983,280,-910,-770,-184,-190,714
-29,-17,-984,70,-980,-770,-181,-192,709
-29,-17,-984,-70,-910,-770,-178,-198,712
-28,-16,-984,-140,-840,-770,-187,-199,703
-27,-17,-984,-70,-840,-700,-181,-186,709
-29,-18,-984,140,-700,-700,-174,-192,705
-28,-18,-983,-140,-770,-700,-177,-204,709
-29,-18,-985,-140,-770,-630,-181,-198,717
-28,-17,-985,-140,-910,-770,-184,-195,714
-27,-18,-984,350,-770,-770,-186,-190,708
-28,-18,-984,700,-840,-840,-178,-192,711
-29,-18,-984,910,-700,-840,-172,-198,705
-28,-19,-983,1260,-840,-840,-180,-186,699
-27,-20,-979,1050,-560,-770,-175,-183,706
-28,-18,-990,280,-840,-700,-178,-187,712
-28,-19,-987,-980,-1680,-630,-177,-184,703
-29,-16,-983,-1680,-1680,-560,-192,-198,717
-28,-18,-984,-2030,-980,-630,-178,-193,712
-28,-17,-985,-1540,-1330,-560,-190,-192,705
-28,-17,-985,-1540,-1120,-630,-181,-193,709
-29,-16,-985,-1120,-1050,-630,-181,-192,702
-28,-17,-984,-700,-1050,-700,-183,-189,708
-28,-17,-984,-490,-1050,-700,-181,-190,706
-27,-16,-983,-630,-1050,-700,-181,-180,708
-28,-15,-985,-840,-1050,-700,-183,-193,700
-28,-16,-985,-840,-1190,-770,-187,-195,700
-28,-15,-984,70,-1050,-840,-181,-187,711
-30,-18,-983,700,-910,-910,-177,-195,706
-29,-18,-985,560,-980,-840,-174,-199,700
-29,-17,-985,-490,-980,-700,-171,-195,696
-28,-17,-982,-840,-910,-630,-183,-190,721
-28,-15,-985,-980,-980,-630,-177,-184,712
-28,-16,-983,-1750,-1400,-560,-172,-205,706
-28,-16,-985,-2100,-1050,-490,-177,-193,703
-28,-15,-983,-1820,-1330,-560,-172,-201,712
-29,-15,-986,-1610,-1120,-630,-171,-199,705
-29,-16,-985,-1120,-1260,-630,-184,-186,700
-28,-15,-985,-770,-980,-630,-178,-199,720
-29,-15,-983,-700,-980,-700,-178,-199,703
-29,-13,-983,-770,-1190,-700,-189,-184,714
-29,-15,-988,-420,-1050,-770,-181,-198,705
-29,-16,-983,770,-1190,-840,-175,-195,703
-29,-16,-984,1120,-840,-910,-174,-190,706
-28,-16,-985,1610,-1190,-910,-181,-189,714
-29,-17,-982,1540,-910,-1050,-184,-193,705
-29,-17,-984,1260,-1120,-980,-178,-187,708
-30,-16,-983,-210,-1120,-770,-175,-180,709
-29,-16,-985,-1540,-1190,-700,-180,-186,712
-30,-15,-983,-1540,-1330,-700,-178,-189,715
-28,-15,-984,-910,-1120,-700,-174,-184,708
-30,-16,-984,-420,-1260,-770,-186,-192,708
-29,-16,-985,0,-1120,-840,-180,-190,709
-28,-16,-984,280,-1050,-910,-171,-186,711
-30,-16,-983,210,-1120,-910,-172,-199,711
-29,-16,-984,-70,-980,-840,-177,-202,717
-29,-15,-985,-280,-1050,-770,-187,-193,706
-28,-15,-984,-140,-1050,-770,-180,-196,714
-30,-14,-985,700,-980,-910,-184,-204,711
-29,-16,-984,1610,-840,-980,-178,-192,706
-29,-17,-984,2170,-840,-1050,-174,-184,694
-29,-19,-984,2730,-770,-1050,-172,-190,711
-28,-20,-982,2170,-700,-1050,-175,-195,706
-29,-19,-985,1400,-560,-910,-186,-196,712
-29,-18,-983,210,-980,-840,-181,-187,705
-29,-17,-984,-2170,-1750,-420,-181,-187,715
-29,-17,-987,-1610,-1050,-630,-172,-181,709
-29,-17,-985,-70,-1330,-840,-166,-186,714
-28,-17,-983,350,-630,-840,-183,-192,706
-28,-18,-984,630,-910,-840,-172,-192,702
-29,-17,-986,770,-770,-910,-187,-202,709
-30,-19,-982,630,-910,-910,-180,-192,703
-28,-17,-989,1400,-840,-980,-171,-189,712
-28,-19,-979,2310,-700,-1050,-184,-193,703
-29,-20,-984,2940,-490,-1050,-175,-183,702
-29,-21,-983,2450,-630,-1050,-175,-193,705
-28,-17,-987,490,-840,-910,-177,-192,709
-30,-20,-987,840,-700,-980,-174,-198,705
-29,-22,-984,3990,-770,-1190,-180,-184,711
-29,-22,-987,5670,-210,-1330,-175,-190,706
-27,-30,-978,7490,-210,-1540,-178,-189,709
-28,-27,-985,8330,0,-1610,-183,-196,702
-28,-26,-979,4690,-210,-1540,-178,-187,705
-27,-29,-983,3920,-490,-1680,-172,-195,709
-27,-27,-982,1190,-910,-1190,-172,-195,705
-28,-27,-985,-840,-770,-980,-172,-196,709
-28,-27,-984,-770,-1400,-980,-171,-198,705
-28,-26,-985,-1050,-1050,-1050,-178,-195,705
-28,-27,-984,140,-980,-1470,-175,-192,708
-27,-27,-982,770,-1050,-1680,-169,-189,703
-28,-28,-983,140,-980,-1610,-178,-198,712
-28,-29,-984,-700,-1050,-1540,-168,-190,705
-27,-27,-982,-1190,-1260,-1540,-183,-195,708
-28,-26,-984,-2590,-1190,-1400,-172,-195,712
-29,-28,-985,-3360,-1400,-1260,-174,-189,708
-29,-27,-983,-3430,-1540,-1400,-175,-193,709
-29,-24,-987,-3150,-1470,-2170,-178,-189,699
-28,-23,-985,-2590,-1330,-2870,-177,-189,699
-29,-24,-984,0,-1120,-3360,-180,-186,700
-31,-34,-986,2730,-700,-2940,-177,-190,708
-28,-32,-978,4410,-770,-3570,-177,-190,709
-27,-18,-984,4060,-980,-6370,-166,-196,714
-27,-21,-983,1610,-980,-6300,-168,-195,700
-28,-27,-982,1050,-1050,-3290,-180,-195,717
-28,-28,-983,-840,-910,-1120,-175,-193,714
-28,-26,-987,-2310,-1400,-630,-177,-196,706
-28,-26,-983,-3920,-1540,-420,-174,-193,711
-28,-22,-990,-2590,-1470,-490,-175,-189,709
-29,-24,-985,-1470,-1470,-700,-169,-195,711
-28,-25,-986,1050,-840,-910,-175,-192,709
-30,-37,-979,4550,-560,-1330,-169,-193,700
-26,-21,-986,3990,-910,-4060,-178,-193,702
-28,-28,-983,1330,-1050,-4550,-174,-189,702
-27,-29,-982,1050,-910,-2520,-172,-193,705
-29,-30,-984,350,-910,-1960,-175,-193,706
-28,-27,-984,-630,-980,-1400,-174,-192,708
-29,-31,-984,-420,-1050,-1050,-162,-190,703
-29,-30,-983,-70,-980,-980,-168,-193,709
-27,-27,-982,-490,-560,-1680,-165,-183,708
-27,-29,-986,-70,-980,-1820,-174,-192,703
-28,-28,-982,560,-1400,-1540,-172,-184,714
-28,-29,-985,-70,-840,-1190,-168,-190,711
-28,-29,-985,-280,-1400,-910,-163,-189,697
-29,-27,-985,70,-1260,-840,-171,-186,708
-29,-33,-980,-70,-700,-630,-172,-195,714
-27,-28,-982,-140,70,-140,-177,-189,709
-29,-29,-988,-210,-560,-560,-172,-198,709
-28,-29,-983,350,-1050,-700,-178,-198,708
-29,-28,-983,700,-560,-840,-166,-192,717
-28,-31,-982,700,-280,-980,-181,-187,712
-28,-30,-982,1190,-630,-1050,-181,-192,702
-28,-30,-982,560,-1260,-980,-172,-186,717
-28,-29,-986,-770,-1190,-700,-177,-202,706
-29,-30,-984,-1400,-1470,-490,-171,-192,709
-29,-33,-979,-1400,-980,-420,-172,-195,712
-27,-31,-985,-1890,4410,2870,-166,-198,702
-27,-27,-987,-1190,2590,1050,-181,-189,705
-26,-30,-985,210,2170,-350,-174,-196,703
-24,-28,-984,1470,3150,-840,-169,-198,708
-24,-27,-990,2100,3220,-1190,-172,-201,700
-20,-32,-980,1610,4270,-420,-180,-190,712
-20,-28,-985,280,7280,1400,-175,-201,712
-19,-27,-985,-980,7280,2660,-169,-198,697
-18,-35,-979,-1120,7210,3360,-177,-201,709
-18,-31,-983,-980,6370,3500,-181,-189,709
-16,-30,-984,-1540,4620,2030,-168,-204,706
-15,-26,-986,-1960,4060,1050,-180,-196,709
-12,-21,-988,-2450,4200,630,-178,-199,712
-9,-21,-977,-2660,5460,1680,-177,-208,708
-8,-25,-980,-1890,5950,4130,-171,-208,708
-12,-29,-985,-2730,3990,7980,-175,-201,699
-13,-30,-984,-3570,2730,9450,-175,-205,711
-13,-29,-985,-4060,2450,8330,-180,-198,709
-10,-29,-982,-4200,1750,6440,-169,-201,709
-10,-28,-985,-2940,1120,3080,-175,-202,712
-8,-26,-988,-2030,350,980,-180,-198,706
-9,-25,-984,-1960,630,-70,-168,-198,706
-8,-20,-985,-2520,1470,-280,-177,-196,708
-6,-18,-986,-4410,1680,-70,-177,-205,705
-5,-16,-990,-3010,3080,4550,-177,-205,717
-7,-21,-994,-2800,3780,6580,-189,-202,700
-8,-26,-994,-2520,4760,8470,-180,-187,708
-4,-25,-988,-2450,6090,7770,-172,-195,715
-2,-23,-982,-2380,7490,6090,-180,-202,700
0,-19,-982,-3010,7840,4900,-177,-199,711
0,-18,-980,-3220,7350,3780,-183,-202,708
0,-20,-966,-2170,6230,3150,-186,-211,715
2,-36,-996,-3080,4970,2240,-183,-205,714
3,-25,-992,-9870,3010,1120,-177,-198,703
2,-3,-991,-8260,4550,-700,-181,-201,699
8,-2,-986,-10430,7980,-1540,-183,-201,714
8,0,-986,-12880,8820,-420,-178,-210,718
10,-2,-984,-13300,9170,980,-177,-205,714
12,-4,-986,-12810,9030,1890,-180,-207,705
15,-3,-986,-13650,8680,2310,-184,-208,709
17,1,-990,-14910,8680,2240,-189,-208,715
18,10,-985,-16800,8820,1750,-183,-207,720
21,6,-984,-17710,9030,1540,-178,-208,715
21,-1,-989,-17080,9100,2030,-193,-207,709
24,2,-1001,-15960,9170,1960,-184,-220,708
25,13,-1003,-14910,10150,560,-187,-217,712
27,25,-1008,-12040,12460,-700,-184,-219,711
26,28,-1004,-18270,15120,490,-201,-213,717
23,23,-1004,-21490,17500,1050,-198,-208,708
36,42,-1011,-24570,20230,1540,-193,-222,717
37,52,-996,-27020,22050,1120,-204,-213,715
46,50,-980,-27650,22470,1610,-204,-220,717
64,54,-993,-29890,22330,2940,-201,-225,711
76,57,-982,-31780,22610,3850,-208,-219,718
82,66,-1005,-33460,24010,4620,-207,-228,709
79,71,-992,-38430,26600,5320,-210,-225,718
79,79,-999,-40530,31640,6650,-213,-238,706
82,85,-972,-43540,36680,7840,-217,-238,720
88,101,-964,-42000,42350,8960,-231,-234,718
93,109,-969,-39060,40670,9240,-226,-247,715
111,114,-957,-33810,37870,9240,-231,-253,721
119,110,-962,-29190,35840,9730,-228,-243,721
134,108,-973,-30310,33810,10710,-232,-258,714
136,109,-966,-31500,33390,10710,-228,-250,717
141,121,-964,-33530,34090,10150,-238,-253,723
141,125,-952,-35140,33880,9100,-243,-261,714
139,125,-945,-33600,33040,8540,-246,-262,720
146,135,-955,-27650,32480,8400,-238,-271,714
152,147,-958,-24080,30800,7630,-243,-264,720
177,154,-966,-19530,29050,6790,-250,-267,715
183,160,-953,-21980,26810,6160,-250,-277,723
186,165,-948,-22890,26460,5460,-247,-267,720
187,169,-951,-24220,25480,5390,-252,-271,711
187,162,-942,-23450,25620,5460,-249,-273,715
189,161,-948,-20580,26250,5600,-261,-276,718
197,162,-942,-19250,26250,5040,-253,-291,714
201,159,-936,-17990,26810,3920,-261,-286,709
207,170,-944,-18690,26320,3220,-262,-280,720
209,177,-936,-18830,25410,1960,-267,-286,720
218,189,-944,-14910,25270,1120,-265,-291,718
227,190,-952,-10150,25130,980,-267,-294,714
230,175,-928,-5320,25130,840,-268,-288,712
235,179,-923,2030,25900,140,-265,-292,714
235,180,-924,1610,24990,-770,-271,-288,714
237,186,-931,980,22820,-1050,-268,-301,708
241,194,-941,1120,19670,-840,-261,-295,717
247,192,-952,1400,16310,-210,-267,-307,714
255,182,-955,1960,14910,1050,-262,-295,714
257,166,-940,1960,15820,1680,-267,-303,702
253,167,-925,1680,17850,1400,-264,-306,715
253,182,-923,350,19040,420,-261,-313,714
255,185,-907,700,18480,-700,-258,-309,711
263,186,-914,4340,16380,-700,-265,-306,711
270,180,-930,4480,11970,-280,-258,-309,712
271,177,-950,8890,7700,-700,-261,-297,702
271,180,-952,7560,8050,-910,-259,-309,703
274,182,-946,7490,11830,-630,-255,-303,700
279,174,-930,7560,15330,280,-265,-316,699
281,169,-926,4550,15400,1190,-261,-310,714
288,161,-930,1820,13160,1260,-258,-310,702
284,164,-934,3150,10920,350,-262,-319,700
298,168,-942,6510,9450,-1120,-247,-312,711
288,149,-946,12110,7630,-2520,-258,-309,706
290,162,-898,20930,5880,-3080,-250,-318,702
276,166,-912,23940,5530,-3640,-238,-321,703
279,172,-941,14630,3990,-3710,-249,-319,699
275,176,-956,5180,6090,-3430,-253,-319,703
283,175,-964,7700,7980,-2170,-247,-319,711
294,158,-942,11550,10710,-3220,-243,-322,706
303,150,-930,14210,14140,-3220,-250,-322,694
319,129,-918,13370,16520,-2170,-246,-331,709
311,109,-894,12460,17640,-770,-246,-322,702
292,132,-908,9170,16240,770,-247,-330,706
301,143,-922,4200,13860,560,-244,-324,705
307,144,-923,3710,12180,-280,-244,-336,708
315,148,-926,4270,10430,-490,-247,-333,693
323,152,-942,1260,9170,-770,-252,-318,702
331,147,-939,-4270,9940,-280,-241,-321,697
326,147,-912,-9520,13650,910,-255,-328,703
317,151,-907,-19460,19250,1750,-252,-324,699
324,168,-896,-20230,19040,1820,-249,-334,711
340,202,-906,-17780,17080,2030,-255,-334,694
322,234,-905,-15260,13020,3570,-246,-336,697
306,139,-932,-8610,9240,8960,-250,-337,694
345,108,-907,-420,5880,15610,-256,-337,694
344,140,-935,-630,5390,11200,-232,-340,699
342,162,-901,-11130,5040,6440,-252,-342,697
333,153,-895,-13160,6090,5670,-261,-340,703
330,143,-876,-15680,5740,6930,-249,-336,699
357,139,-894,-17430,5180,7000,-252,-336,696
355,166,-880,-28280,2870,1750,-259,-337,691
351,197,-892,-33180,2800,-350,-249,-343,697
339,211,-879,-42980,420,-2660,-259,-337,700
327,219,-893,-49910,-1820,-3360,-259,-337,691
329,221,-897,-54320,-2940,-2520,-279,-342,703
325,218,-914,-56490,-3430,-1260,-274,-346,708
311,217,-914,-57050,-3920,280,-273,-345,702
340,235,-887,-53410,-5320,140,-285,-342,690
343,237,-889,-46900,-6930,-1540,-271,-342,709
358,249,-869,-46900,-8820,-1610,-289,-336,699
304,257,-786,-52920,-8400,-1470,-295,-339,699
363,332,-1003,-71260,-8820,700,-312,-345,709
330,312,-912,-93660,-14490,-1960,-312,-336,700
338,282,-825,-48300,-3570,-1120,-310,-333,706
326,297,-836,-30240,2450,630,-316,-342,693
335,312,-852,-29470,350,1400,-304,-333,711
345,323,-858,-26670,-2310,910,-322,-336,703
357,332,-897,-23590,-3430,-630,-327,-337,703
353,340,-902,-25480,-3010,-2730,-325,-342,696
338,350,-878,-23660,-910,-4550,-324,-336,705
327,355,-845,-22120,-210,-4900,-321,-337,703
328,337,-857,-26460,-2030,-4970,-325,-334,703
323,338,-850,-35560,-5040,-5180,-327,-336,706
321,373,-860,-39060,-7350,-6020,-333,-331,706
326,398,-895,-41720,-11970,-5950,-336,-337,702
338,406,-901,-33460,-10150,-2660,-331,-333,703
332,384,-899,-18410,-3220,2590,-348,-327,705
332,366,-848,-5110,3920,7630,-333,-333,706
324,371,-803,980,7840,9730,-345,-334,697
328,401,-818,-5530,5180,6860,-349,-333,702
331,385,-869,-19740,-1330,2170,-346,-339,688
329,365,-863,-23450,-5530,2170,-352,-325,694
333,358,-893,-16310,-5040,3710,-348,-334,711
332,365,-885,-8960,-2730,2590,-346,-331,700
326,414,-866,560,980,1120,-349,-337,700
329,415,-877,6300,8540,2520,-349,-328,699
325,412,-861,9520,12600,6020,-348,-330,693
301,428,-860,16940,15680,7770,-351,-334,711
311,405,-868,20020,18480,6510,-348,-349,694
318,377,-847,28070,22680,1190,-349,-330,699
358,317,-818,33390,25900,-7140,-343,-348,691
385,275,-828,36680,25480,-13020,-327,-349,690
374,278,-851,22470,14700,-6860,-334,-339,690
375,296,-858,18620,9730,-1750,-333,-342,697
394,308,-865,24640,11270,420,-334,-348,699
371,336,-852,33180,14070,2450,-324,-339,687
369,341,-872,29400,11060,4480,-334,-352,691
365,326,-853,34370,8330,0,-318,-352,691
355,321,-819,43540,7490,-1890,-327,-351,700
361,321,-818,48650,8050,-1330,-315,-360,699
369,319,-828,46410,7840,2030,-319,-343,706
375,296,-873,41300,7070,2940,-312,-354,699
391,237,-894,34930,5600,2380,-300,-361,694
372,274,-901,34160,6020,-1400,-294,-354,697
358,290,-872,27090,4970,-4900,-300,-355,696
364,289,-870,27230,6650,-5390,-288,-357,700
387,275,-888,23800,6440,-4130,-300,-354,697
406,257,-917,17430,6230,-2030,-300,-363,687
412,255,-896,13090,7700,-70,-298,-354,694
390,268,-892,21000,14070,350,-288,-361,691
330,284,-888,21560,15890,700,-295,-355,685
359,261,-837,25690,18200,-630,-292,-360,697
348,266,-863,31220,19530,-1960,-288,-364,693
367,246,-895,27720,17290,-2100,-288,-363,687
372,244,-927,30030,17080,-3360,-280,-363,693
437,223,-905,38990,18410,-4760,-279,-372,688
470,201,-897,51660,20790,-5880,-283,-358,679
468,189,-869,55370,20230,-5040,-271,-363,678
432,213,-879,52150,20300,-2380,-282,-373,691
340,251,-876,50120,23870,3640,-255,-369,684
371,192,-862,24640,21350,2380,-265,-372,690
411,153,-855,29330,19880,-1330,-255,-364,676
401,166,-913,32550,18270,-2590,-250,-372,678
447,129,-840,39970,18550,-280,-243,-381,678
446,130,-880,51520,21840,1680,-247,-378,676
453,145,-868,41160,21140,3990,-244,-393,679
445,167,-844,39480,24220,4620,-247,-375,676
429,184,-865,37800,26880,3710,-244,-390,679
424,166,-853,31710,25760,70,-237,-390,670
439,160,-833,28910,25270,-3920,-235,-379,667
479,130,-833,22750,25410,-6370,-237,-379,678
492,119,-872,10290,24710,-4550,-240,-394,664
479,151,-857,-1960,23310,770,-232,-393,673
471,151,-849,-5390,25900,5040,-237,-393,672
455,140,-826,-8610,24150,3360,-238,-393,670
451,143,-836,-10290,21840,1610,-222,-391,664
449,151,-862,-16100,18830,2520,-238,-393,663
435,148,-901,-22750,16520,5460,-234,-396,669
512,144,-885,-22470,18550,7350,-241,-402,664
541,109,-903,-13440,22470,8260,-241,-409,661
533,107,-883,-7980,24430,11550,-235,-399,663
512,126,-846,-770,28840,13790,-243,-405,658
504,146,-832,6440,31500,13930,-229,-412,651
516,126,-842,9940,30380,12180,-241,-415,649
525,116,-781,15260,29190,9030,-232,-412,657
508,137,-788,17430,23380,5880,-238,-415,645
496,134,-776,12250,19600,4480,-216,-423,645
518,131,-786,8890,16520,2730,-226,-411,654
533,124,-789,3430,15610,1890,-223,-426,645
562,114,-831,-1960,15890,2030,-223,-421,646
569,132,-844,-6720,18690,3360,-226,-412,652
572,146,-833,-8470,21980,4970,-228,-421,646
560,134,-812,-8540,23870,3780,-231,-417,649
541,115,-795,-8050,23590,1400,-226,-418,642
533,102,-779,-10150,22120,-420,-229,-418,648
557,103,-803,-11270,21070,-910,-229,-424,646
568,104,-815,-2240,19810,2940,-220,-432,646
578,114,-817,5110,20300,4830,-223,-426,637
571,138,-797,10990,22330,6510,-222,-430,646
598,129,-783,13580,23030,8050,-235,-430,634
570,174,-787,13370,23940,8260,-234,-433,643
589,150,-761,9310,23660,6650,-234,-436,639
592,149,-774,3290,20720,1610,-214,-436,639
625,113,-821,-490,16310,-2030,-223,-438,636
629,74,-818,420,13020,-5810,-219,-433,633
611,79,-822,9870,15120,-4760,-235,-445,631
575,98,-801,17570,18620,1330,-231,-441,630
549,163,-766,18270,19460,8050,-226,-436,633
591,131,-777,2100,12530,9800,-216,-436,624
607,117,-779,-9730,11480,7910,-219,-447,630
625,88,-791,-18620,12250,7560,-219,-441,625
661,71,-767,-21630,11830,7490,-214,-447,625
650,82,-767,-18130,9240,8540,-217,-454,628
626,99,-747,-16450,6650,10500,-220,-444,628
597,119,-725,-15610,4900,10850,-220,-447,625
582,130,-729,-19670,2870,10640,-226,-454,633
574,118,-691,-26530,1960,9520,-231,-450,627
562,133,-690,-31290,3710,8050,-225,-432,627
625,110,-838,-40110,6860,7770,-228,-442,633
645,137,-1116,-52430,8540,4130,-229,-436,627
591,97,-111,35980,17780,3010,-228,-445,637
632,136,-822,113330,42140,1400,-220,-444,621
626,85,-682,7140,23870,4480,-226,-450,622
640,111,-754,25130,21070,1890,-219,-453,628
652,116,-789,20580,13370,280,-217,-445,627
671,104,-839,24990,11480,-700,-217,-460,622
665,107,-821,30940,10640,-1400,-207,-457,612
640,119,-676,38430,11760,-1540,-208,-454,612
605,148,-645,35700,15680,490,-210,-466,615
625,111,-709,6300,19810,2940,-207,-457,616
650,120,-716,-25060,22960,4200,-219,-451,607
638,143,-713,-56910,25690,6370,-208,-451,612
608,147,-718,-66500,24290,4200,-219,-468,612
601,141,-715,-73850,23100,490,-217,-457,612
631,142,-747,-79870,21560,-1260,-234,-469,616
674,147,-770,-84420,19600,-350,-238,-469,607
713,157,-832,-80990,20440,1050,-247,-468,615
721,148,-818,-68950,23730,2520,-234,-474,615
694,150,-712,-38220,31570,2520,-243,-468,604
649,169,-698,-13160,40250,3850,-237,-480,603
623,175,-664,-2590,45150,6440,-237,-469,604
652,173,-655,6440,44380,7350,-250,-478,597
715,151,-707,7210,40810,5880,-231,-484,597
734,145,-732,2730,39340,4060,-238,-493,607
737,146,-715,7630,42700,5740,-244,-486,594
729,154,-673,17220,47180,8750,-232,-495,595
723,162,-646,23870,49910,10290,-240,-496,586
718,155,-648,23870,49490,9940,-235,-493,592
722,136,-632,19670,47530,8330,-229,-492,582
733,137,-625,18900,46550,7490,-226,-508,583
751,148,-621,14210,44590,9310,-225,-502,568
782,126,-663,7980,42210,9730,-228,-511,574
810,105,-668,6090,39970,9380,-220,-508,576
794,134,-649,14910,40390,10780,-228,-510,579
781,139,-641,29540,40740,11480,-232,-504,562
772,127,-626,30660,40600,11200,-210,-516,564
763,121,-612,29750,40670,11760,-207,-510,559
758,119,-581,28560,41020,13020,-210,-514,552
775,121,-591,26180,41160,13790,-207,-519,555
803,107,-600,19600,39410,13720,-207,-520,541
828,87,-602,17360,38780,12950,-214,-516,556
837,81,-611,18690,39480,12600,-207,-517,546
837,66,-582,22680,40600,12670,-207,-520,541
826,53,-538,31360,42630,12320,-199,-522,537
798,63,-531,32060,40950,13230,-186,-526,535
790,69,-519,27930,38220,13370,-195,-528,523
803,67,-519,15960,34720,10780,-195,-541,531
809,64,-531,10220,34300,8820,-184,-531,525
835,47,-513,7980,34580,7210,-195,-529,519
868,37,-513,10640,35770,6090,-181,-543,519
864,35,-509,12740,35630,4970,-190,-541,523
830,49,-484,13090,35980,3640,-175,-541,513
812,66,-463,11690,37030,3220,-192,-543,508
813,71,-464,5880,36680,2590,-187,-537,501
833,71,-473,-4620,35280,770,-183,-540,501
866,55,-472,-13300,34440,-1610,-180,-543,493
875,56,-475,-18130,34790,-3290,-175,-552,495
866,52,-470,-21280,36960,-4690,-178,-544,486
855,55,-466,-16940,36470,-6790,-192,-552,486
843,56,-458,-11900,36330,-7490,-181,-552,489
846,47,-443,-7070,37450,-7210,-187,-556,483
868,31,-435,-2100,39270,-5460,-180,-549,478
891,40,-441,980,40390,-2100,-183,-556,475
925,45,-433,3080,40740,1470,-181,-553,481
922,55,-437,5880,40740,3010,-186,-553,475
911,71,-423,6930,40670,3220,-190,-559,481
906,66,-408,6300,41020,2100,-186,-561,463
897,63,-404,2240,40460,280,-181,-565,472
893,60,-383,-1820,39760,-1610,-183,-550,460
899,55,-375,-3080,40040,-2380,-190,-555,459
912,52,-367,-3430,39690,-2800,-187,-570,462
918,52,-345,-4480,38430,-3780,-184,-573,453
916,68,-352,-7070,36330,-4690,-196,-573,447
916,77,-366,-12880,33250,-4690,-180,-571,453
923,65,-357,-15050,31570,-6160,-193,-574,447
927,61,-373,-14280,31150,-7140,-192,-576,448
943,68,-393,-12250,30520,-6160,-187,-577,451
936,73,-375,-4970,31640,-4550,-187,-574,445
931,78,-359,4410,34300,-3500,-183,-567,436
936,80,-349,10150,36750,-2240,-193,-576,438
937,77,-328,11130,38290,-840,-187,-580,430
951,75,-302,10990,39200,280,-187,-571,430
963,78,-300,10430,37380,2520,-184,-582,438
966,72,-307,6930,34860,3780,-178,-577,426
963,88,-303,4970,31780,3920,-180,-582,418
961,82,-292,5250,30240,3430,-180,-580,421
952,79,-288,1960,29050,2590,-178,-582,414
951,72,-277,-2310,28070,2170,-198,-582,418
949,61,-273,-3780,27860,1540,-193,-582,406
935,45,-268,-4620,27300,840,-190,-585,409
929,42,-258,-2380,27440,1190,-177,-582,408
933,55,-259,3080,27930,3080,-178,-582,408
956,72,-244,7140,28210,5670,-189,-594,408
975,73,-245,6930,28210,6300,-189,-580,399
985,64,-236,3430,27300,4760,-181,-595,394
983,59,-238,1820,26530,2870,-183,-582,391
974,61,-232,560,25410,1330,-178,-585,388
960,63,-220,1190,24850,560,-192,-585,388
953,63,-218,210,24360,1050,-172,-586,378
948,64,-211,-2870,24500,1960,-180,-589,396
948,57,-208,-6720,24780,2800,-175,-583,387
964,53,-208,-10150,24850,3080,-186,-580,382
970,47,-206,-13650,24640,3220,-183,-592,375
968,53,-209,-14840,25060,3080,-181,-586,379
966,55,-180,-14350,25690,3080,-180,-588,373
965,67,-188,-13160,25410,2940,-181,-598,375
980,68,-189,-16590,24710,2940,-181,-589,370
993,56,-194,-18900,24500,2450,-181,-594,378
990,53,-194,-19880,25480,2520,-184,-591,370
986,47,-173,-17570,27090,2800,-180,-597,363
976,45,-156,-12530,28560,2310,-178,-598,370
972,40,-138,-11130,28140,1610,-183,-595,358
971,45,-147,-10990,26460,630,-180,-591,358
984,58,-153,-12600,24150,210,-174,-592,357
985,64,-144,-13020,23030,-70,-178,-592,360
994,66,-153,-13580,22400,-420,-178,-598,360
1011,49,-161,-15820,21840,-350,-180,-601,357
1002,47,-143,-11900,22120,280,-186,-597,357
986,45,-128,-4900,22890,630,-175,-603,348
983,50,-114,-1470,22820,1470,-177,-589,349
984,53,-116,-910,21840,2520,-178,-595,349
982,56,-113,-2100,21070,3010,-183,-594,339
996,70,-125,-2380,21000,3360,-178,-603,349
1002,69,-124,-2730,21210,3500,-187,-595,349
1009,63,-107,-70,22820,2380,-180,-604,343
991,57,-104,910,24150,1190,-177,-612,340
972,50,-73,1330,25130,210,-178,-607,339
986,43,-79,1190,25270,-770,-174,-589,339
993,51,-72,350,23170,-280,-175,-589,333
995,61,-59,840,22680,630,-181,-600,337
993,65,-59,-1050,21560,910,-192,-597,328
987,61,-60,-4830,19880,-140,-175,-607,330
993,56,-66,-6720,18130,-1400,-183,-603,328
998,58,-71,-7140,16800,-1820,-184,-594,324
992,59,-51,-5670,16800,-1330,-181,-595,327
987,61,-44,-3640,17080,-980,-168,-597,315
987,56,-44,-4690,16730,-700,-180,-594,315
990,54,-47,-6090,16030,-420,-180,-598,316
1003,46,-37,-6370,15330,700,-180,-589,322
990,48,-21,-5040,15400,2310,-174,-589,322
988,58,-17,-560,13300,4340,-166,-604,313
989,54,-13,-280,10150,3710,-178,-591,306
997,48,-14,-1470,6580,2310,-175,-603,310
1012,48,-21,-2240,2800,700,-178,-598,316
1021,50,-24,-1400,-980,-770,-177,-594,316
1007,54,-34,-630,-4270,-2100,-172,-594,322
998,50,-41,-770,-6860,-2940,-187,-597,316
993,44,-43,-140,-8190,-3150,-175,-595,318
993,43,-48,1260,-8050,-3010,-165,-603,321
989,49,-52,2870,-7700,-1960,-177,-591,324
990,44,-54,5250,-7070,-1190,-177,-601,319
1000,58,-68,5950,-6860,-490,-178,-598,315
1009,68,-71,6230,-5180,1610,-184,-597,322
1009,63,-66,6440,-3570,1960,-180,-598,316
1006,55,-51,5740,-1890,2310,-174,-598,315
997,46,-48,5110,-420,2520,-169,-591,316
991,42,-46,4410,-700,2380,-184,-597,312
990,42,-49,4760,-1330,1960,-178,-595,322
999,44,-55,4830,-2380,1610,-169,-597,319
1008,47,-59,5040,-2730,1400,-172,-585,321
1017,49,-61,4900,-2730,1400,-171,-592,321
1013,46,-63,4200,-2100,1540,-177,-591,313
992,43,-54,3360,-1190,1610,-177,-594,316
991,46,-52,4270,840,1610,-166,-607,316
993,44,-43,3150,1680,1400,-181,-598,313
980,41,-43,1680,2170,630,-177,-598,316
988,37,-41,70,1750,-560,-174,-604,325
1001,39,-46,-630,770,-1400,-171,-595,316
1013,42,-50,-1050,-140,-1820,-174,-610,306
1025,47,-61,-490,-1120,-2170,-177,-591,316
1012,49,-64,560,-1540,-2520,-171,-600,310
996,46,-55,2030,-1190,-2660,-178,-607,315
988,46,-48,3360,0,-2100,-165,-598,321
984,54,-45,3010,770,-1540,-169,-600,318
1003,50,-52,1750,1190,-1190,-169,-594,312
1004,47,-52,-2310,770,-1680,-178,-598,324
1006,48,-55,-1540,980,-1330,-174,-598,322
1006,50,-54,-140,980,-770,-177,-598,316
1000,48,-46,840,980,-630,-175,-595,316
994,48,-45,770,1190,-490,-174,-600,313
994,43,-44,-420,1260,-560,-168,-594,319
993,40,-41,-1260,1470,-840,-168,-600,312
996,39,-41,-1610,1330,-910,-178,-597,312
1000,41,-44,-1750,840,-770,-174,-597,307
1002,47,-50,-1330,70,-560,-174,-592,310
998,45,-48,-210,-490,-350,-177,-601,324
996,45,-46,980,140,-140,-181,-600,313
997,50,-48,840,280,-210,-168,-601,322
999,53,-47,910,560,-350,-175,-598,315
1002,46,-43,420,910,-910,-178,-607,322
1000,47,-47,-560,1190,-1260,-181,-588,312
996,44,-50,-1400,1400,-1260,-184,-592,318
991,47,-46,-1540,2100,-910,-180,-606,316
990,49,-41,-1680,3080,-630,-180,-603,309
996,48,-35,-2310,3990,-630,-174,-597,306
1004,46,-38,-3500,4130,-770,-174,-604,312
1006,42,-36,-4200,3430,-1120,-177,-597,321
1014,38,-30,-2590,2590,-1190,-172,-603,316
1003,40,-45,-910,1540,-1470,-177,-586,315
993,43,-40,1400,-280,-1820,-177,-597,318
982,46,-38,2520,-70,-1540,-177,-598,309
987,51,-31,2240,350,-910,-169,-601,313
995,54,-33,1610,700,-560,-175,-600,313
1003,51,-34,-210,910,-140,-178,-603,313
1003,50,-33,-1470,700,210,-172,-594,306
1003,46,-38,-1680,560,700,-177,-592,310
1004,43,-41,-1890,-140,910,-178,-603,319
1001,42,-38,-700,-700,910,-177,-598,315
999,42,-33,1260,-1120,980,-175,-595,313
995,42,-28,2380,-1470,1120,-178,-601,315
995,46,-30,2730,-1890,1120,-177,-591,306
995,45,-32,1890,-3570,350,-181,-598,313
998,44,-39,630,-4270,-350,-177,-601,303
1003,44,-49,-420,-4690,-840,-177,-607,315
1006,44,-51,-420,-4760,-910,-172,-595,315
1004,45,-47,840,-4130,-770,-177,-603,313
1001,45,-42,2240,-3570,-140,-178,-592,316
998,49,-40,2800,-3360,560,-174,-598,315
995,48,-37,2730,-3360,910,-178,-588,310
